Time,Device name,Chip Time(),Acceleration X(g),Acceleration Y(g),Acceleration Z(g),Angular velocity X(°/s),Angular velocity Y(°/s),Angular velocity Z(°/s),Angle X(°),Angle Y(°),Angle Z(°),Magnetic field X(ʯt),Magnetic field Y(ʯt),Magnetic field Z(ʯt),Temperature(℃)
 00:25:01.457,COM9, 2025-8-18 0:25:1.194, -0.002, 0.003, 1.001, 0.000, 0.000, 0.000, 0.000, 0.000, 0.016, -43.000, 228.000, -401.000, 29.73,
 00:25:01.460,COM9, 2025-8-18 0:25:1.196, -0.002, 0.003, 1.001, 0.000, 0.000, 0.000, 0.000, 0.000, 0.016, -43.000, 228.000, -401.000, 29.73,
 00:25:01.461,COM9, 2025-8-18 0:25:1.198, -0.002, 0.003, 1.001, 0.000, 0.000, 0.000, 0.000, 0.000, 0.016, -42.000, 231.000, -402.000, 29.73,
 00:25:01.463,COM9, 2025-8-18 0:25:1.200, -0.002, 0.003, 1.001, 0.000, 0.000, 0.000, 0.000, 0.000, 0.016, -42.000, 231.000, -402.000, 29.73,
 00:25:01.466,COM9, 2025-8-18 0:25:1.202, -0.002, 0.003, 1.001, 0.000, 0.000, 0.000, 0.000, 0.000, 0.022, -42.000, 231.000, -402.000, 29.73,
 00:25:01.467,COM9, 2025-8-18 0:25:1.204, -0.002, 0.003, 1.001, 0.000, 0.000, 0.000, 0.000, 0.000, 0.022, -42.000, 231.000, -402.000, 29.73,
 00:25:01.469,COM9, 2025-8-18 0:25:1.206, -0.002, 0.003, 1.001, 0.000, 0.000, 0.000, 0.000, 0.000, 0.022, -42.000, 231.000, -402.000, 29.73,
 00:25:01.472,COM9, 2025-8-18 0:25:1.208, -0.002, 0.003, 1.001, 0.000, 0.000, 0.000, 0.000, 0.000, 0.027, -45.000, 231.000, -400.000, 29.73,
 00:25:01.473,COM9, 2025-8-18 0:25:1.210, -0.002, 0.003, 1.001, 0.000, 0.000, 0.000, 0.000, 0.000, 0.022, -45.000, 231.000, -400.000, 29.73,
 00:25:01.475,COM9, 2025-8-18 0:25:1.212, -0.002, 0.004, 1.000, 0.000, 0.000, 0.000, 0.000, 0.000, 0.022, -45.000, 231.000, -400.000, 29.73,
 00:25:01.478,COM9, 2025-8-18 0:25:1.214, -0.002, 0.004, 1.000, 0.000, 0.000, 0.000, 0.000, 0.000, 0.016, -45.000, 231.000, -400.000, 29.73,
 00:25:01.479,COM9, 2025-8-18 0:25:1.216, -0.002, 0.004, 1.000, 0.000, 0.000, 0.000, 0.000, 0.000, 0.016, -45.000, 231.000, -400.000, 29.73,
 00:25:01.481,COM9, 2025-8-18 0:25:1.218, -0.002, 0.004, 1.000, 0.000, 0.000, 0.000, 0.000, 0.000, 0.016, -45.000, 227.000, -400.000, 29.73,
 00:25:01.484,COM9, 2025-8-18 0:25:1.220, -0.002, 0.004, 1.000, 0.000, 0.000, 0.000, 0.000, 0.000, 0.011, -45.000, 227.000, -400.000, 29.73,
 00:25:01.485,COM9, 2025-8-18 0:25:1.222, -0.002, 0.004, 1.000, 0.000, 0.000, 0.000, 0.000, 0.000, 0.011, -45.000, 227.000, -400.000, 29.73,
 00:25:01.487,COM9, 2025-8-18 0:25:1.224, -0.002, 0.004, 1.000, 0.000, 0.000, 0.000, 0.000, 0.000, 0.005, -45.000, 227.000, -400.000, 29.73,
 00:25:01.490,COM9, 2025-8-18 0:25:1.226, -0.002, 0.004, 1.000, 0.000, 0.000, 0.000, 0.000, 0.000, 0.000, -45.000, 227.000, -400.000, 29.73,
 00:25:01.491,COM9, 2025-8-18 0:25:1.228, -0.002, 0.004, 1.000, 0.000, 0.000, 0.000, 0.000, 0.000, 0.000, -42.000, 232.000, -401.000, 29.73,
 00:25:01.493,COM9, 2025-8-18 0:25:1.230, -0.002, 0.004, 1.000, 0.000, 0.000, 0.000, 0.000, 0.000, 0.005, -42.000, 232.000, -401.000, 29.73,
 00:25:01.496,COM9, 2025-8-18 0:25:1.232, -0.002, 0.003, 1.000, 0.000, 0.000, 0.000, 0.000, 0.000, 0.005, -42.000, 232.000, -401.000, 29.74,
 00:25:01.497,COM9, 2025-8-18 0:25:1.234, -0.002, 0.003, 1.000, 0.000, 0.000, 0.000, 0.000, 0.000, 0.011, -42.000, 232.000, -401.000, 29.74,
 00:25:01.499,COM9, 2025-8-18 0:25:1.236, -0.002, 0.003, 1.000, 0.000, 0.000, 0.000, 0.000, 0.000, 0.011, -42.000, 232.000, -401.000, 29.74,
 00:25:01.502,COM9, 2025-8-18 0:25:1.238, -0.002, 0.003, 1.000, 0.000, 0.000, 0.000, 0.000, 0.000, 0.011, -45.000, 233.000, -402.000, 29.74,
 00:25:01.503,COM9, 2025-8-18 0:25:1.240, -0.002, 0.003, 1.000, 0.000, 0.000, 0.000, 0.000, 0.000, 0.011, -45.000, 233.000, -402.000, 29.74,
 00:25:01.505,COM9, 2025-8-18 0:25:1.242, -0.002, 0.003, 1.000, 0.000, 0.000, 0.000, 0.000, 0.000, 0.011, -45.000, 233.000, -402.000, 29.74,
 00:25:01.508,COM9, 2025-8-18 0:25:1.244, -0.002, 0.003, 1.000, 0.000, 0.000, 0.000, 0.000, 0.000, 0.011, -45.000, 233.000, -402.000, 29.74,
 00:25:01.510,COM9, 2025-8-18 0:25:1.246, -0.002, 0.003, 1.000, 0.000, 0.000, 0.000, 0.000, 0.000, 0.005, -45.000, 233.000, -402.000, 29.74,
 00:25:01.511,COM9, 2025-8-18 0:25:1.248, -0.002, 0.003, 1.000, 0.000, 0.000, 0.000, 0.000, 0.000, 0.005, -43.000, 231.000, -397.000, 29.74,
 00:25:01.513,COM9, 2025-8-18 0:25:1.250, -0.002, 0.003, 1.000, 0.000, 0.000, 0.000, 0.000, 0.000, 0.011, -43.000, 231.000, -397.000, 29.74,
 00:25:01.516,COM9, 2025-8-18 0:25:1.252, -0.002, 0.003, 1.000, 0.000, 0.000, 0.000, 0.000, 0.000, 0.011, -43.000, 231.000, -397.000, 29.71,
 00:25:01.517,COM9, 2025-8-18 0:25:1.254, -0.002, 0.003, 1.000, 0.000, 0.000, 0.000, 0.000, 0.000, 0.011, -43.000, 231.000, -397.000, 29.71,
 00:25:01.525,COM9, 2025-8-18 0:25:1.256, -0.002, 0.003, 1.000, 0.000, 0.000, 0.000, 0.000, 0.000, 0.011, -43.000, 231.000, -397.000, 29.71,
 00:25:01.525,COM9, 2025-8-18 0:25:1.258, -0.002, 0.003, 1.000, 0.000, 0.000, 0.000, 0.000, 0.000, 0.011, -44.000, 231.000, -402.000, 29.71,
 00:25:01.525,COM9, 2025-8-18 0:25:1.260, -0.002, 0.003, 1.000, 0.000, 0.000, 0.000, 0.000, 0.000, 0.011, -44.000, 231.000, -402.000, 29.71,
 00:25:01.525,COM9, 2025-8-18 0:25:1.262, -0.002, 0.003, 1.000, 0.000, 0.000, 0.000, 0.000, 0.000, 0.011, -44.000, 231.000, -402.000, 29.71,
 00:25:01.528,COM9, 2025-8-18 0:25:1.264, -0.002, 0.003, 1.000, 0.000, 0.000, 0.000, 0.000, 0.000, 0.011, -44.000, 231.000, -402.000, 29.71,
 00:25:01.530,COM9, 2025-8-18 0:25:1.266, -0.002, 0.003, 1.000, 0.000, 0.000, 0.000, 0.000, 0.000, 0.011, -44.000, 231.000, -402.000, 29.71,
 00:25:01.531,COM9, 2025-8-18 0:25:1.268, -0.002, 0.003, 1.000, 0.000, 0.000, 0.000, 0.000, 0.000, 0.011, -42.000, 231.000, -397.000, 29.71,
 00:25:01.534,COM9, 2025-8-18 0:25:1.270, -0.002, 0.003, 1.000, 0.000, 0.000, 0.000, 0.000, 0.000, 0.011, -42.000, 231.000, -397.000, 29.71,
 00:25:01.535,COM9, 2025-8-18 0:25:1.272, -0.002, 0.004, 1.000, 0.000, 0.000, 0.000, 0.000, 0.000, 0.016, -42.000, 231.000, -397.000, 29.70,
 00:25:01.537,COM9, 2025-8-18 0:25:1.274, -0.002, 0.004, 1.000, 0.000, 0.000, 0.000, 0.000, 0.000, 0.016, -42.000, 231.000, -397.000, 29.70,
 00:25:01.540,COM9, 2025-8-18 0:25:1.276, -0.002, 0.004, 1.000, 0.000, 0.000, 0.000, 0.000, 0.000, 0.022, -42.000, 231.000, -397.000, 29.70,
 00:25:01.541,COM9, 2025-8-18 0:25:1.278, -0.002, 0.004, 1.000, 0.000, 0.000, 0.000, 0.000, 0.000, 0.022, -44.000, 231.000, -400.000, 29.70,
 00:25:01.543,COM9, 2025-8-18 0:25:1.280, -0.002, 0.004, 1.000, 0.000, 0.000, 0.000, 0.000, 0.000, 0.022, -44.000, 231.000, -400.000, 29.70,
 00:25:01.544,COM9, 2025-8-18 0:25:1.282, -0.002, 0.004, 1.000, 0.000, 0.000, 0.000, 0.000, 0.000, 0.022, -44.000, 231.000, -400.000, 29.70,
 00:25:01.547,COM9, 2025-8-18 0:25:1.284, -0.002, 0.004, 1.000, 0.000, 0.000, 0.000, 0.000, 0.000, 0.022, -44.000, 231.000, -400.000, 29.70,
 00:25:01.549,COM9, 2025-8-18 0:25:1.286, -0.002, 0.004, 1.000, 0.000, 0.000, 0.000, 0.000, 0.000, 0.016, -44.000, 231.000, -400.000, 29.70,
 00:25:01.552,COM9, 2025-8-18 0:25:1.288, -0.002, 0.004, 1.000, 0.000, 0.000, 0.000, 0.000, 0.000, 0.016, -44.000, 231.000, -402.000, 29.70,
 00:25:01.553,COM9, 2025-8-18 0:25:1.290, -0.002, 0.004, 1.000, 0.000, 0.000, 0.000, 0.000, 0.000, 0.016, -44.000, 231.000, -402.000, 29.70,
 00:25:01.555,COM9, 2025-8-18 0:25:1.292, -0.002, 0.004, 0.999, 0.000, 0.000, 0.000, 0.000, 0.000, 0.016, -44.000, 231.000, -402.000, 29.70,
 00:25:01.556,COM9, 2025-8-18 0:25:1.294, -0.002, 0.004, 0.999, 0.000, 0.000, 0.000, 0.000, 0.000, 0.016, -44.000, 231.000, -402.000, 29.70,
 00:25:01.559,COM9, 2025-8-18 0:25:1.296, -0.002, 0.004, 0.999, 0.000, 0.000, 0.000, 0.000, 0.000, 0.016, -44.000, 231.000, -402.000, 29.70,
 00:25:01.561,COM9, 2025-8-18 0:25:1.298, -0.002, 0.004, 0.999, 0.000, 0.000, 0.000, 0.000, 0.000, 0.016, -43.000, 230.000, -398.000, 29.70,
 00:25:01.564,COM9, 2025-8-18 0:25:1.300, -0.002, 0.004, 0.999, 0.000, 0.000, 0.000, 0.000, 0.000, 0.016, -43.000, 230.000, -398.000, 29.70,
 00:25:01.565,COM9, 2025-8-18 0:25:1.302, -0.002, 0.004, 0.999, 0.000, 0.000, 0.000, 0.000, 0.000, 0.016, -43.000, 230.000, -398.000, 29.70,
 00:25:01.567,COM9, 2025-8-18 0:25:1.304, -0.002, 0.004, 0.999, 0.000, 0.000, 0.000, 0.000, 0.000, 0.016, -43.000, 230.000, -398.000, 29.70,
 00:25:01.570,COM9, 2025-8-18 0:25:1.306, -0.002, 0.004, 0.999, 0.000, 0.000, 0.000, 0.000, 0.000, 0.016, -43.000, 230.000, -398.000, 29.70,
 00:25:01.571,COM9, 2025-8-18 0:25:1.308, -0.002, 0.004, 0.999, 0.000, 0.000, 0.000, 0.000, 0.000, 0.016, -44.000, 228.000, -401.000, 29.70,
 00:25:01.573,COM9, 2025-8-18 0:25:1.310, -0.002, 0.004, 0.999, 0.000, 0.000, 0.000, 0.000, 0.000, 0.016, -44.000, 228.000, -401.000, 29.70,
 00:25:01.576,COM9, 2025-8-18 0:25:1.312, -0.002, 0.003, 0.999, 0.000, 0.000, 0.000, 0.000, 0.000, 0.016, -44.000, 228.000, -401.000, 29.70,
 00:25:01.577,COM9, 2025-8-18 0:25:1.314, -0.002, 0.003, 0.999, 0.000, 0.000, 0.000, 0.000, 0.000, 0.016, -44.000, 228.000, -401.000, 29.70,
 00:25:01.579,COM9, 2025-8-18 0:25:1.316, -0.002, 0.003, 0.999, 0.000, 0.000, 0.000, 0.000, 0.000, 0.011, -44.000, 228.000, -401.000, 29.70,
 00:25:01.580,COM9, 2025-8-18 0:25:1.318, -0.002, 0.003, 0.999, 0.000, 0.000, 0.000, 0.000, 0.000, 0.011, -43.000, 230.000, -401.000, 29.70,
 00:25:01.583,COM9, 2025-8-18 0:25:1.320, -0.002, 0.003, 0.999, 0.000, 0.000, 0.000, 0.000, 0.000, 0.011, -43.000, 230.000, -401.000, 29.70,
 00:25:01.585,COM9, 2025-8-18 0:25:1.322, -0.002, 0.003, 0.999, 0.000, 0.000, 0.000, 0.000, 0.000, 0.016, -43.000, 230.000, -401.000, 29.70,
 00:25:01.586,COM9, 2025-8-18 0:25:1.324, -0.002, 0.003, 0.999, 0.000, 0.000, 0.000, 0.000, 0.000, 0.016, -43.000, 230.000, -401.000, 29.70,
 00:25:01.589,COM9, 2025-8-18 0:25:1.326, -0.002, 0.003, 0.999, 0.000, 0.000, 0.000, 0.000, 0.000, 0.016, -43.000, 230.000, -401.000, 29.70,
 00:25:01.591,COM9, 2025-8-18 0:25:1.328, -0.002, 0.003, 0.999, 0.000, 0.000, 0.000, 0.000, 0.000, 0.016, -44.000, 231.000, -400.000, 29.70,
 00:25:01.592,COM9, 2025-8-18 0:25:1.330, -0.002, 0.003, 0.999, 0.000, 0.000, 0.000, 0.000, 0.000, 0.016, -44.000, 231.000, -400.000, 29.70,
 00:25:01.595,COM9, 2025-8-18 0:25:1.332, -0.002, 0.004, 1.000, 0.000, 0.000, 0.000, 0.000, 0.000, 0.016, -44.000, 231.000, -400.000, 29.69,
 00:25:01.597,COM9, 2025-8-18 0:25:1.334, -0.002, 0.004, 1.000, 0.000, 0.000, 0.000, 0.000, 0.000, 0.016, -44.000, 231.000, -400.000, 29.69,
 00:25:01.600,COM9, 2025-8-18 0:25:1.336, -0.002, 0.004, 1.000, 0.000, 0.000, 0.000, 0.000, 0.000, 0.016, -44.000, 231.000, -400.000, 29.69,
 00:25:01.603,COM9, 2025-8-18 0:25:1.340, -0.002, 0.004, 1.000, 0.000, 0.000, 0.000, 0.000, 0.000, 0.011, -46.000, 230.000, -401.000, 29.69,
 00:25:01.604,COM9, 2025-8-18 0:25:1.342, -0.002, 0.004, 1.000, 0.000, 0.000, 0.000, 0.000, 0.000, 0.005, -46.000, 230.000, -401.000, 29.69,
 00:25:01.607,COM9, 2025-8-18 0:25:1.344, -0.002, 0.004, 1.000, 0.000, 0.000, 0.000, 0.000, 0.000, 0.000, -46.000, 230.000, -401.000, 29.69,
 00:25:01.609,COM9, 2025-8-18 0:25:1.346, -0.002, 0.004, 1.000, 0.000, 0.000, 0.000, 0.000, 0.000, 0.000, -46.000, 230.000, -401.000, 29.69,
 00:25:01.610,COM9, 2025-8-18 0:25:1.348, -0.002, 0.004, 1.000, 0.000, 0.000, 0.000, 0.000, 0.000, 0.000, -42.000, 231.000, -400.000, 29.69,
 00:25:01.613,COM9, 2025-8-18 0:25:1.350, -0.002, 0.004, 1.000, 0.000, 0.000, 0.000, 0.000, 0.000, 0.000, -42.000, 231.000, -400.000, 29.69,
 00:25:01.615,COM9, 2025-8-18 0:25:1.352, -0.002, 0.004, 1.000, 0.000, 0.000, 0.000, 0.000, 0.000, 0.000, -42.000, 231.000, -400.000, 29.70,
 00:25:01.616,COM9, 2025-8-18 0:25:1.354, -0.002, 0.004, 1.000, 0.000, 0.000, 0.000, 0.000, 0.000, 0.005, -42.000, 231.000, -400.000, 29.70,
 00:25:01.621,COM9, 2025-8-18 0:25:1.356, -0.002, 0.004, 1.000, 0.000, 0.000, 0.000, 0.000, 0.000, 0.005, -42.000, 231.000, -400.000, 29.70,
 00:25:01.623,COM9, 2025-8-18 0:25:1.358, -0.002, 0.004, 1.000, 0.000, 0.000, 0.000, 0.000, 0.000, 0.011, -43.000, 231.000, -402.000, 29.70,
 00:25:01.623,COM9, 2025-8-18 0:25:1.360, -0.002, 0.004, 1.000, 0.000, 0.000, 0.000, 0.000, 0.000, 0.011, -43.000, 231.000, -402.000, 29.70,
 00:25:01.624,COM9, 2025-8-18 0:25:1.362, -0.002, 0.004, 1.000, 0.000, 0.000, 0.000, 0.000, 0.000, 0.011, -43.000, 231.000, -402.000, 29.70,
 00:25:01.627,COM9, 2025-8-18 0:25:1.364, -0.002, 0.004, 1.000, 0.000, 0.000, 0.000, 0.000, 0.000, 0.011, -43.000, 231.000, -402.000, 29.70,
 00:25:01.629,COM9, 2025-8-18 0:25:1.366, -0.002, 0.004, 1.000, 0.000, 0.000, 0.000, 0.000, 0.000, 0.011, -43.000, 231.000, -402.000, 29.70,
 00:25:01.630,COM9, 2025-8-18 0:25:1.368, -0.002, 0.004, 1.000, 0.000, 0.000, 0.000, 0.000, 0.000, 0.016, -42.000, 229.000, -400.000, 29.70,
 00:25:01.633,COM9, 2025-8-18 0:25:1.370, -0.003, 0.004, 1.000, 0.000, 0.000, 0.000, 0.000, 0.000, 0.016, -42.000, 229.000, -400.000, 29.70,
 00:25:01.635,COM9, 2025-8-18 0:25:1.372, -0.003, 0.004, 1.000, 0.000, 0.000, 0.000, 0.000, 0.000, 0.016, -42.000, 229.000, -400.000, 29.70,
 00:25:01.636,COM9, 2025-8-18 0:25:1.374, -0.003, 0.004, 1.000, 0.000, 0.000, 0.000, 0.000, 0.000, 0.022, -42.000, 229.000, -400.000, 29.70,
 00:25:01.639,COM9, 2025-8-18 0:25:1.376, -0.003, 0.004, 1.000, 0.000, 0.000, 0.000, 0.000, 0.000, 0.022, -42.000, 229.000, -400.000, 29.70,
 00:25:01.641,COM9, 2025-8-18 0:25:1.378, -0.003, 0.004, 1.000, 0.000, 0.000, 0.000, 0.000, 0.000, 0.022, -47.000, 233.000, -397.000, 29.70,
 00:25:01.642,COM9, 2025-8-18 0:25:1.380, -0.003, 0.004, 1.000, 0.000, 0.000, 0.000, 0.000, 0.000, 0.016, -47.000, 233.000, -397.000, 29.70,
 00:25:01.645,COM9, 2025-8-18 0:25:1.382, -0.003, 0.004, 1.000, 0.000, 0.000, 0.000, 0.000, 0.000, 0.011, -47.000, 233.000, -397.000, 29.70,
 00:25:01.647,COM9, 2025-8-18 0:25:1.384, -0.003, 0.004, 1.000, 0.000, 0.000, 0.000, 0.000, 0.000, 0.011, -47.000, 233.000, -397.000, 29.70,
 00:25:01.650,COM9, 2025-8-18 0:25:1.386, -0.003, 0.004, 1.000, 0.000, 0.000, 0.000, 0.000, 0.000, 0.005, -47.000, 233.000, -397.000, 29.70,
 00:25:01.651,COM9, 2025-8-18 0:25:1.388, -0.003, 0.004, 1.000, 0.000, 0.000, 0.000, 0.000, 0.000, 0.000, -43.000, 228.000, -398.000, 29.70,
 00:25:01.653,COM9, 2025-8-18 0:25:1.390, -0.001, 0.004, 1.000, 0.000, 0.000, 0.000, 0.000, 0.000, 0.000, -43.000, 228.000, -398.000, 29.70,
 00:25:01.654,COM9, 2025-8-18 0:25:1.392, -0.001, 0.003, 1.000, 0.000, 0.000, 0.000, 0.000, 0.000, 0.000, -43.000, 228.000, -398.000, 29.70,
 00:25:01.657,COM9, 2025-8-18 0:25:1.394, -0.001, 0.003, 1.000, 0.000, 0.000, 0.000, 0.000, 0.000, 0.000, -43.000, 228.000, -398.000, 29.70,
 00:25:01.659,COM9, 2025-8-18 0:25:1.396, -0.001, 0.003, 1.000, 0.000, 0.000, 0.000, 0.000, 0.000, 0.000, -43.000, 228.000, -398.000, 29.70,
 00:25:01.660,COM9, 2025-8-18 0:25:1.398, -0.001, 0.003, 1.000, 0.000, 0.000, 0.000, 0.000, 0.000, 0.000, -43.000, 228.000, -396.000, 29.70,
 00:25:01.663,COM9, 2025-8-18 0:25:1.400, -0.001, 0.003, 1.000, 0.000, 0.000, 0.000, 0.000, 0.000, 0.000, -43.000, 228.000, -396.000, 29.70,
 00:25:01.665,COM9, 2025-8-18 0:25:1.402, -0.001, 0.003, 1.000, 0.000, 0.000, 0.000, 0.000, 0.000, 0.005, -43.000, 228.000, -396.000, 29.70,
 00:25:01.666,COM9, 2025-8-18 0:25:1.404, -0.001, 0.003, 1.000, 0.000, 0.000, 0.000, 0.000, 0.000, 0.005, -43.000, 228.000, -396.000, 29.70,
 00:25:01.669,COM9, 2025-8-18 0:25:1.406, -0.001, 0.003, 1.000, 0.000, 0.000, 0.000, 0.000, 0.000, 0.005, -43.000, 228.000, -396.000, 29.70,
 00:25:01.671,COM9, 2025-8-18 0:25:1.408, -0.001, 0.003, 1.000, 0.000, 0.000, 0.000, 0.000, 0.000, 0.005, -43.000, 233.000, -402.000, 29.70,
 00:25:01.672,COM9, 2025-8-18 0:25:1.410, -0.001, 0.003, 1.000, 0.000, 0.000, 0.000, 0.000, 0.000, 0.005, -43.000, 233.000, -402.000, 29.70,
 00:25:01.675,COM9, 2025-8-18 0:25:1.412, -0.001, 0.003, 1.000, 0.000, 0.000, 0.000, 0.000, 0.000, 0.005, -43.000, 233.000, -402.000, 29.71,
 00:25:01.677,COM9, 2025-8-18 0:25:1.414, -0.001, 0.003, 1.000, 0.000, 0.000, 0.000, 0.000, 0.000, 0.011, -43.000, 233.000, -402.000, 29.71,
 00:25:01.680,COM9, 2025-8-18 0:25:1.416, -0.001, 0.003, 1.000, 0.000, 0.000, 0.000, 0.000, 0.000, 0.011, -43.000, 233.000, -402.000, 29.71,
 00:25:01.681,COM9, 2025-8-18 0:25:1.418, -0.001, 0.003, 1.000, 0.000, 0.000, 0.000, 0.000, 0.000, 0.011, -44.000, 229.000, -400.000, 29.71,
 00:25:01.683,COM9, 2025-8-18 0:25:1.420, -0.001, 0.003, 1.000, 0.000, 0.000, 0.000, 0.000, 0.000, 0.011, -44.000, 229.000, -400.000, 29.71,
 00:25:01.687,COM9, 2025-8-18 0:25:1.424, -0.001, 0.003, 1.000, 0.000, 0.000, 0.000, 0.000, 0.000, 0.011, -44.000, 229.000, -400.000, 29.71,
 00:25:01.689,COM9, 2025-8-18 0:25:1.426, -0.001, 0.003, 1.000, 0.000, 0.000, 0.000, 0.000, 0.000, 0.011, -44.000, 229.000, -400.000, 29.71,
 00:25:01.690,COM9, 2025-8-18 0:25:1.428, -0.001, 0.003, 1.000, 0.000, 0.000, 0.000, 0.000, 0.000, 0.005, -46.000, 230.000, -401.000, 29.71,
 00:25:01.693,COM9, 2025-8-18 0:25:1.430, -0.002, 0.003, 1.000, 0.000, 0.000, 0.000, 0.000, 0.000, 0.005, -46.000, 230.000, -401.000, 29.71,
 00:25:01.695,COM9, 2025-8-18 0:25:1.432, -0.002, 0.003, 1.000, 0.000, 0.000, 0.000, 0.000, 0.000, 0.000, -46.000, 230.000, -401.000, 29.74,
 00:25:01.696,COM9, 2025-8-18 0:25:1.434, -0.002, 0.003, 1.000, 0.000, 0.000, 0.000, 0.000, 0.000, 0.000, -46.000, 230.000, -401.000, 29.74,
 00:25:01.699,COM9, 2025-8-18 0:25:1.436, -0.002, 0.003, 1.000, 0.000, 0.000, 0.000, 0.000, -0.005, 0.000, -46.000, 230.000, -401.000, 29.74,
 00:25:01.701,COM9, 2025-8-18 0:25:1.438, -0.002, 0.003, 1.000, 0.000, 0.000, 0.000, 0.000, -0.005, -0.005, -45.000, 230.000, -401.000, 29.74,
 00:25:01.702,COM9, 2025-8-18 0:25:1.440, -0.002, 0.003, 1.000, 0.000, 0.000, 0.000, 0.000, -0.005, -0.005, -45.000, 230.000, -401.000, 29.74,
 00:25:01.705,COM9, 2025-8-18 0:25:1.442, -0.002, 0.003, 1.000, 0.000, 0.000, 0.000, 0.000, -0.005, -0.005, -45.000, 230.000, -401.000, 29.74,
 00:25:01.707,COM9, 2025-8-18 0:25:1.444, -0.002, 0.003, 1.000, 0.000, 0.000, 0.000, 0.000, -0.005, -0.011, -45.000, 230.000, -401.000, 29.74,
 00:25:01.710,COM9, 2025-8-18 0:25:1.446, -0.002, 0.003, 1.000, 0.000, 0.000, 0.000, 0.000, -0.005, -0.011, -45.000, 230.000, -401.000, 29.74,
 00:25:01.711,COM9, 2025-8-18 0:25:1.448, -0.002, 0.003, 1.000, 0.000, 0.000, 0.000, 0.000, -0.005, -0.011, -44.000, 232.000, -401.000, 29.74,
 00:25:01.713,COM9, 2025-8-18 0:25:1.450, -0.002, 0.003, 1.000, 0.000, 0.000, 0.000, 0.000, -0.005, -0.011, -44.000, 232.000, -401.000, 29.74,
 00:25:01.714,COM9, 2025-8-18 0:25:1.452, -0.002, 0.003, 1.000, 0.000, 0.000, 0.000, 0.000, -0.005, -0.011, -44.000, 232.000, -401.000, 29.73,
 00:25:01.717,COM9, 2025-8-18 0:25:1.454, -0.002, 0.003, 1.000, 0.000, 0.000, 0.000, 0.000, -0.005, -0.011, -44.000, 232.000, -401.000, 29.73,
 00:25:01.719,COM9, 2025-8-18 0:25:1.456, -0.002, 0.003, 1.000, 0.000, 0.000, 0.000, 0.000, -0.005, -0.011, -44.000, 232.000, -401.000, 29.73,
 00:25:01.720,COM9, 2025-8-18 0:25:1.458, -0.002, 0.003, 1.000, 0.000, 0.000, 0.000, 0.000, -0.005, -0.011, -43.000, 229.000, -402.000, 29.73,
 00:25:01.723,COM9, 2025-8-18 0:25:1.460, -0.002, 0.003, 1.000, 0.000, 0.000, 0.000, 0.000, -0.005, -0.011, -43.000, 229.000, -402.000, 29.73,
 00:25:01.725,COM9, 2025-8-18 0:25:1.462, -0.002, 0.003, 1.000, 0.000, 0.000, 0.000, 0.000, -0.005, -0.011, -43.000, 229.000, -402.000, 29.73,
 00:25:01.726,COM9, 2025-8-18 0:25:1.464, -0.002, 0.003, 1.000, 0.000, 0.000, 0.000, 0.000, -0.005, -0.011, -43.000, 229.000, -402.000, 29.73,
 00:25:01.729,COM9, 2025-8-18 0:25:1.466, -0.002, 0.003, 1.000, 0.000, 0.000, 0.000, 0.000, -0.005, -0.011, -43.000, 229.000, -402.000, 29.73,
 00:25:01.731,COM9, 2025-8-18 0:25:1.468, -0.002, 0.003, 1.000, 0.000, 0.000, 0.000, 0.000, -0.005, -0.005, -43.000, 232.000, -398.000, 29.73,
 00:25:01.734,COM9, 2025-8-18 0:25:1.470, -0.001, 0.003, 1.000, 0.000, 0.000, 0.000, 0.000, -0.005, -0.005, -43.000, 232.000, -398.000, 29.73,
 00:25:01.735,COM9, 2025-8-18 0:25:1.472, -0.001, 0.003, 1.001, 0.000, 0.000, 0.000, 0.000, -0.005, -0.005, -43.000, 232.000, -398.000, 29.70,
 00:25:01.737,COM9, 2025-8-18 0:25:1.474, -0.001, 0.003, 1.001, 0.000, 0.000, 0.000, 0.000, -0.005, -0.005, -43.000, 232.000, -398.000, 29.70,
 00:25:01.740,COM9, 2025-8-18 0:25:1.476, -0.001, 0.003, 1.001, 0.000, 0.000, 0.000, 0.000, -0.005, 0.000, -43.000, 232.000, -398.000, 29.70,
 00:25:01.741,COM9, 2025-8-18 0:25:1.478, -0.001, 0.003, 1.001, 0.000, 0.000, 0.000, 0.000, -0.005, 0.000, -42.000, 231.000, -405.000, 29.70,
 00:25:01.743,COM9, 2025-8-18 0:25:1.480, -0.001, 0.003, 1.001, 0.000, 0.000, 0.000, 0.000, -0.005, 0.000, -42.000, 231.000, -405.000, 29.70,
 00:25:01.744,COM9, 2025-8-18 0:25:1.482, -0.001, 0.003, 1.001, 0.000, 0.000, 0.000, 0.000, -0.005, 0.000, -42.000, 231.000, -405.000, 29.70,
 00:25:01.747,COM9, 2025-8-18 0:25:1.484, -0.001, 0.003, 1.001, 0.000, 0.000, 0.000, 0.000, -0.005, 0.005, -42.000, 231.000, -405.000, 29.70,
 00:25:01.749,COM9, 2025-8-18 0:25:1.486, -0.001, 0.003, 1.001, 0.000, 0.000, 0.000, 0.000, -0.005, 0.005, -42.000, 231.000, -405.000, 29.70,
 00:25:01.750,COM9, 2025-8-18 0:25:1.488, -0.001, 0.003, 1.001, 0.000, 0.000, 0.000, 0.000, -0.005, 0.011, -41.000, 231.000, -402.000, 29.70,
 00:25:01.753,COM9, 2025-8-18 0:25:1.490, -0.002, 0.003, 1.001, 0.000, 0.000, 0.000, 0.000, -0.005, 0.011, -41.000, 231.000, -402.000, 29.70,
 00:25:01.755,COM9, 2025-8-18 0:25:1.492, -0.002, 0.003, 1.000, 0.000, 0.000, 0.000, 0.000, -0.005, 0.016, -41.000, 231.000, -402.000, 29.73,
 00:25:01.756,COM9, 2025-8-18 0:25:1.494, -0.002, 0.003, 1.000, 0.000, 0.000, 0.000, 0.000, -0.005, 0.022, -41.000, 231.000, -402.000, 29.73,
 00:25:01.759,COM9, 2025-8-18 0:25:1.496, -0.002, 0.003, 1.000, 0.000, 0.000, 0.000, 0.000, -0.005, 0.027, -41.000, 231.000, -402.000, 29.73,
 00:25:01.761,COM9, 2025-8-18 0:25:1.498, -0.002, 0.003, 1.000, 0.000, 0.000, 0.000, 0.000, -0.005, 0.027, -43.000, 226.000, -401.000, 29.73,
 00:25:01.762,COM9, 2025-8-18 0:25:1.500, -0.002, 0.003, 1.000, 0.000, 0.000, 0.000, 0.000, -0.005, 0.027, -43.000, 226.000, -401.000, 29.73,
 00:25:01.765,COM9, 2025-8-18 0:25:1.502, -0.002, 0.003, 1.000, 0.000, 0.000, 0.000, 0.000, -0.005, 0.027, -43.000, 226.000, -401.000, 29.73,
 00:25:01.767,COM9, 2025-8-18 0:25:1.504, -0.002, 0.003, 1.000, 0.000, 0.000, 0.000, 0.000, -0.005, 0.027, -43.000, 226.000, -401.000, 29.73,
 00:25:01.770,COM9, 2025-8-18 0:25:1.506, -0.002, 0.003, 1.000, 0.000, 0.000, 0.000, 0.000, -0.005, 0.027, -43.000, 226.000, -401.000, 29.73,
 00:25:01.771,COM9, 2025-8-18 0:25:1.508, -0.002, 0.003, 1.000, 0.000, 0.000, 0.000, 0.000, -0.005, 0.027, -43.000, 230.000, -398.000, 29.73,
 00:25:01.773,COM9, 2025-8-18 0:25:1.510, -0.002, 0.003, 1.000, 0.000, 0.000, 0.000, 0.000, -0.005, 0.027, -43.000, 230.000, -398.000, 29.73,
 00:25:01.774,COM9, 2025-8-18 0:25:1.512, -0.002, 0.004, 0.999, 0.000, 0.000, 0.000, 0.000, -0.005, 0.027, -43.000, 230.000, -398.000, 29.72,
 00:25:01.777,COM9, 2025-8-18 0:25:1.514, -0.002, 0.004, 0.999, 0.000, 0.000, 0.000, 0.000, -0.005, 0.027, -43.000, 230.000, -398.000, 29.72,
 00:25:01.779,COM9, 2025-8-18 0:25:1.516, -0.002, 0.004, 0.999, 0.000, 0.000, 0.000, 0.000, -0.005, 0.027, -43.000, 230.000, -398.000, 29.72,
 00:25:01.780,COM9, 2025-8-18 0:25:1.518, -0.002, 0.004, 0.999, 0.000, 0.000, 0.000, 0.000, -0.005, 0.027, -44.000, 232.000, -401.000, 29.72,
 00:25:01.783,COM9, 2025-8-18 0:25:1.520, -0.002, 0.004, 0.999, 0.000, 0.000, 0.000, 0.000, -0.005, 0.027, -44.000, 232.000, -401.000, 29.72,
 00:25:01.785,COM9, 2025-8-18 0:25:1.522, -0.002, 0.004, 0.999, 0.000, 0.000, 0.000, 0.000, -0.005, 0.027, -44.000, 232.000, -401.000, 29.72,
 00:25:01.786,COM9, 2025-8-18 0:25:1.524, -0.002, 0.004, 0.999, 0.000, 0.000, 0.000, 0.000, -0.005, 0.027, -44.000, 232.000, -401.000, 29.72,
 00:25:01.789,COM9, 2025-8-18 0:25:1.526, -0.002, 0.004, 0.999, 0.000, 0.000, 0.000, 0.000, -0.005, 0.027, -44.000, 232.000, -401.000, 29.72,
 00:25:01.791,COM9, 2025-8-18 0:25:1.528, -0.002, 0.004, 0.999, 0.000, 0.000, 0.000, 0.000, -0.005, 0.027, -43.000, 230.000, -403.000, 29.72,
 00:25:01.792,COM9, 2025-8-18 0:25:1.530, -0.002, 0.004, 0.999, 0.000, 0.000, 0.000, 0.000, -0.005, 0.027, -43.000, 230.000, -403.000, 29.72,
 00:25:01.795,COM9, 2025-8-18 0:25:1.532, -0.002, 0.003, 1.000, 0.000, 0.000, 0.000, 0.000, -0.005, 0.033, -43.000, 230.000, -403.000, 29.73,
 00:25:01.797,COM9, 2025-8-18 0:25:1.534, -0.002, 0.003, 1.000, 0.000, 0.000, 0.000, 0.000, -0.005, 0.033, -43.000, 230.000, -403.000, 29.73,
 00:25:01.800,COM9, 2025-8-18 0:25:1.536, -0.002, 0.003, 1.000, 0.000, 0.000, 0.000, 0.000, -0.005, 0.033, -43.000, 230.000, -403.000, 29.73,
 00:25:01.801,COM9, 2025-8-18 0:25:1.538, -0.002, 0.003, 1.000, 0.000, 0.000, 0.000, 0.000, -0.005, 0.033, -46.000, 229.000, -402.000, 29.73,
 00:25:01.803,COM9, 2025-8-18 0:25:1.540, -0.002, 0.003, 1.000, 0.000, 0.000, 0.000, 0.000, -0.005, 0.027, -46.000, 229.000, -402.000, 29.73,
 00:25:01.804,COM9, 2025-8-18 0:25:1.542, -0.002, 0.003, 1.000, 0.000, 0.000, 0.000, 0.000, -0.005, 0.022, -46.000, 229.000, -402.000, 29.73,
 00:25:01.807,COM9, 2025-8-18 0:25:1.544, -0.002, 0.003, 1.000, 0.000, 0.000, 0.000, 0.000, -0.005, 0.022, -46.000, 229.000, -402.000, 29.73,
 00:25:01.809,COM9, 2025-8-18 0:25:1.546, -0.002, 0.003, 1.000, 0.000, 0.000, 0.000, 0.000, -0.005, 0.016, -46.000, 229.000, -402.000, 29.73,
 00:25:01.810,COM9, 2025-8-18 0:25:1.548, -0.002, 0.003, 1.000, 0.000, 0.000, 0.000, 0.000, -0.005, 0.011, -46.000, 228.000, -398.000, 29.73,
 00:25:01.813,COM9, 2025-8-18 0:25:1.550, -0.001, 0.003, 1.000, 0.000, 0.000, 0.000, 0.000, -0.005, 0.005, -46.000, 228.000, -398.000, 29.73,
 00:25:01.815,COM9, 2025-8-18 0:25:1.552, -0.001, 0.003, 1.000, 0.000, 0.000, 0.000, 0.000, -0.005, 0.005, -46.000, 228.000, -398.000, 29.72,
 00:25:01.816,COM9, 2025-8-18 0:25:1.554, -0.001, 0.003, 1.000, 0.000, 0.000, 0.000, 0.000, -0.005, 0.000, -46.000, 228.000, -398.000, 29.72,
 00:25:01.819,COM9, 2025-8-18 0:25:1.556, -0.001, 0.003, 1.000, 0.000, 0.000, 0.000, 0.000, -0.005, 0.000, -46.000, 228.000, -398.000, 29.72,
 00:25:01.821,COM9, 2025-8-18 0:25:1.558, -0.001, 0.003, 1.000, 0.000, 0.000, 0.000, 0.000, -0.005, 0.000, -42.000, 231.000, -400.000, 29.72,
 00:25:01.822,COM9, 2025-8-18 0:25:1.560, -0.001, 0.003, 1.000, 0.000, 0.000, 0.000, 0.000, -0.011, 0.000, -42.000, 231.000, -400.000, 29.72,
 00:25:01.825,COM9, 2025-8-18 0:25:1.562, -0.001, 0.003, 1.000, 0.000, 0.000, 0.000, 0.000, -0.011, 0.000, -42.000, 231.000, -400.000, 29.72,
 00:25:01.827,COM9, 2025-8-18 0:25:1.564, -0.001, 0.003, 1.000, 0.000, 0.000, 0.000, 0.000, -0.011, 0.005, -42.000, 231.000, -400.000, 29.72,
 00:25:01.830,COM9, 2025-8-18 0:25:1.566, -0.001, 0.003, 1.000, 0.000, 0.000, 0.000, 0.000, -0.011, 0.005, -42.000, 231.000, -400.000, 29.72,
 00:25:01.831,COM9, 2025-8-18 0:25:1.568, -0.001, 0.003, 1.000, 0.000, 0.000, 0.000, 0.000, -0.011, 0.005, -44.000, 232.000, -403.000, 29.72,
 00:25:01.833,COM9, 2025-8-18 0:25:1.570, -0.002, 0.003, 1.000, 0.000, 0.000, 0.000, 0.000, -0.011, 0.005, -44.000, 232.000, -403.000, 29.72,
 00:25:01.834,COM9, 2025-8-18 0:25:1.572, -0.002, 0.003, 1.000, 0.000, 0.000, 0.000, 0.000, -0.011, 0.005, -44.000, 232.000, -403.000, 29.72,
 00:25:01.837,COM9, 2025-8-18 0:25:1.574, -0.002, 0.003, 1.000, 0.000, 0.000, 0.000, 0.000, -0.011, 0.011, -44.000, 232.000, -403.000, 29.72,
 00:25:01.839,COM9, 2025-8-18 0:25:1.576, -0.002, 0.003, 1.000, 0.000, 0.000, 0.000, 0.000, -0.011, 0.011, -44.000, 232.000, -403.000, 29.72,
 00:25:01.840,COM9, 2025-8-18 0:25:1.578, -0.002, 0.003, 1.000, 0.000, 0.000, 0.000, 0.000, -0.011, 0.011, -43.000, 230.000, -403.000, 29.72,
 00:25:01.843,COM9, 2025-8-18 0:25:1.580, -0.002, 0.003, 1.000, 0.000, 0.000, 0.000, 0.000, -0.011, 0.011, -43.000, 230.000, -403.000, 29.72,
 00:25:01.845,COM9, 2025-8-18 0:25:1.582, -0.002, 0.003, 1.000, 0.000, 0.000, 0.000, 0.000, -0.011, 0.011, -43.000, 230.000, -403.000, 29.72,
 00:25:01.846,COM9, 2025-8-18 0:25:1.584, -0.002, 0.003, 1.000, 0.000, 0.000, 0.000, 0.000, -0.011, 0.011, -43.000, 230.000, -403.000, 29.72,
 00:25:01.849,COM9, 2025-8-18 0:25:1.586, -0.002, 0.003, 1.000, 0.000, 0.000, 0.000, 0.000, -0.011, 0.011, -43.000, 230.000, -403.000, 29.72,
 00:25:01.851,COM9, 2025-8-18 0:25:1.588, -0.002, 0.003, 1.000, 0.000, 0.000, 0.000, 0.000, -0.011, 0.011, -44.000, 231.000, -400.000, 29.72,
 00:25:01.854,COM9, 2025-8-18 0:25:1.590, -0.002, 0.003, 1.000, 0.000, 0.000, 0.000, 0.000, -0.011, 0.011, -44.000, 231.000, -400.000, 29.72,
 00:25:01.855,COM9, 2025-8-18 0:25:1.592, -0.002, 0.003, 1.000, 0.000, 0.000, 0.000, 0.000, -0.011, 0.011, -44.000, 231.000, -400.000, 29.70,
 00:25:01.857,COM9, 2025-8-18 0:25:1.594, -0.002, 0.003, 1.000, 0.000, 0.000, 0.000, 0.000, -0.011, 0.011, -44.000, 231.000, -400.000, 29.70,
 00:25:01.860,COM9, 2025-8-18 0:25:1.596, -0.002, 0.003, 1.000, 0.000, 0.000, 0.000, 0.000, -0.011, 0.011, -44.000, 231.000, -400.000, 29.70,
 00:25:01.861,COM9, 2025-8-18 0:25:1.598, -0.002, 0.003, 1.000, 0.000, 0.000, 0.000, 0.000, -0.011, 0.011, -43.000, 231.000, -400.000, 29.70,
 00:25:01.863,COM9, 2025-8-18 0:25:1.600, -0.002, 0.003, 1.000, 0.000, 0.000, 0.000, 0.000, -0.011, 0.011, -43.000, 231.000, -400.000, 29.70,
 00:25:01.864,COM9, 2025-8-18 0:25:1.602, -0.002, 0.003, 1.000, 0.000, 0.000, 0.000, 0.000, -0.011, 0.011, -43.000, 231.000, -400.000, 29.70,
 00:25:01.867,COM9, 2025-8-18 0:25:1.604, -0.002, 0.003, 1.000, 0.000, 0.000, 0.000, 0.000, -0.011, 0.011, -43.000, 231.000, -400.000, 29.70,
 00:25:01.869,COM9, 2025-8-18 0:25:1.606, -0.002, 0.003, 1.000, 0.000, 0.000, 0.000, 0.000, -0.011, 0.016, -43.000, 231.000, -400.000, 29.70,
 00:25:01.870,COM9, 2025-8-18 0:25:1.608, -0.002, 0.003, 1.000, 0.000, 0.000, 0.000, 0.000, -0.011, 0.016, -43.000, 228.000, -401.000, 29.70,
 00:25:01.873,COM9, 2025-8-18 0:25:1.610, -0.002, 0.003, 1.000, 0.000, 0.000, 0.000, 0.000, -0.011, 0.016, -43.000, 228.000, -401.000, 29.70,
 00:25:01.875,COM9, 2025-8-18 0:25:1.612, -0.002, 0.004, 0.999, 0.000, 0.000, 0.000, 0.000, -0.011, 0.016, -43.000, 228.000, -401.000, 29.70,
 00:25:01.876,COM9, 2025-8-18 0:25:1.614, -0.002, 0.004, 0.999, 0.000, 0.000, 0.000, 0.000, -0.011, 0.016, -43.000, 228.000, -401.000, 29.70,
 00:25:01.879,COM9, 2025-8-18 0:25:1.616, -0.002, 0.004, 0.999, 0.000, 0.000, 0.000, 0.000, -0.011, 0.016, -43.000, 228.000, -401.000, 29.70,
 00:25:01.881,COM9, 2025-8-18 0:25:1.618, -0.002, 0.004, 0.999, 0.000, 0.000, 0.000, 0.000, -0.011, 0.016, -44.000, 228.000, -401.000, 29.70,
 00:25:01.882,COM9, 2025-8-18 0:25:1.620, -0.002, 0.004, 0.999, 0.000, 0.000, 0.000, 0.000, -0.011, 0.011, -44.000, 228.000, -401.000, 29.70,
 00:25:01.885,COM9, 2025-8-18 0:25:1.622, -0.002, 0.004, 0.999, 0.000, 0.000, 0.000, 0.000, -0.011, 0.011, -44.000, 228.000, -401.000, 29.70,
 00:25:01.887,COM9, 2025-8-18 0:25:1.624, -0.002, 0.004, 0.999, 0.000, 0.000, 0.000, 0.000, -0.005, 0.011, -44.000, 228.000, -401.000, 29.70,
 00:25:01.890,COM9, 2025-8-18 0:25:1.626, -0.002, 0.004, 0.999, 0.000, 0.000, 0.000, 0.000, -0.005, 0.011, -44.000, 228.000, -401.000, 29.70,
 00:25:01.891,COM9, 2025-8-18 0:25:1.628, -0.002, 0.004, 0.999, 0.000, 0.000, 0.000, 0.000, -0.005, 0.011, -42.000, 230.000, -398.000, 29.70,
 00:25:01.893,COM9, 2025-8-18 0:25:1.630, -0.002, 0.004, 0.999, 0.000, 0.000, 0.000, 0.000, -0.005, 0.011, -42.000, 230.000, -398.000, 29.70,
 00:25:01.894,COM9, 2025-8-18 0:25:1.632, -0.002, 0.004, 1.000, 0.000, 0.000, 0.000, 0.000, -0.005, 0.011, -42.000, 230.000, -398.000, 29.72,
 00:25:01.899,COM9, 2025-8-18 0:25:1.634, -0.002, 0.004, 1.000, 0.000, 0.000, 0.000, 0.000, -0.005, 0.016, -42.000, 230.000, -398.000, 29.72,
 00:25:01.899,COM9, 2025-8-18 0:25:1.636, -0.002, 0.004, 1.000, 0.000, 0.000, 0.000, 0.000, -0.005, 0.016, -42.000, 230.000, -398.000, 29.72,
 00:25:01.900,COM9, 2025-8-18 0:25:1.638, -0.002, 0.004, 1.000, 0.000, 0.000, 0.000, 0.000, -0.005, 0.016, -47.000, 231.000, -402.000, 29.72,
 00:25:01.903,COM9, 2025-8-18 0:25:1.640, -0.002, 0.004, 1.000, 0.000, 0.000, 0.000, 0.000, -0.005, 0.011, -47.000, 231.000, -402.000, 29.72,
 00:25:01.906,COM9, 2025-8-18 0:25:1.642, -0.002, 0.004, 1.000, 0.000, 0.000, 0.000, 0.000, -0.005, 0.005, -47.000, 231.000, -402.000, 29.72,
 00:25:01.907,COM9, 2025-8-18 0:25:1.644, -0.002, 0.004, 1.000, 0.000, 0.000, 0.000, 0.000, -0.005, 0.000, -47.000, 231.000, -402.000, 29.72,
 00:25:01.909,COM9, 2025-8-18 0:25:1.646, -0.002, 0.004, 1.000, 0.000, 0.000, 0.000, 0.000, -0.005, 0.000, -47.000, 231.000, -402.000, 29.72,
 00:25:01.912,COM9, 2025-8-18 0:25:1.648, -0.002, 0.004, 1.000, 0.000, 0.000, 0.000, 0.000, -0.005, 0.000, -43.000, 230.000, -403.000, 29.72,
 00:25:01.913,COM9, 2025-8-18 0:25:1.650, -0.002, 0.004, 1.000, 0.000, 0.000, 0.000, 0.000, -0.005, 0.000, -43.000, 230.000, -403.000, 29.72,
 00:25:01.915,COM9, 2025-8-18 0:25:1.652, -0.002, 0.003, 1.000, 0.000, 0.000, 0.000, 0.000, -0.005, 0.000, -43.000, 230.000, -403.000, 29.72,
 00:25:01.918,COM9, 2025-8-18 0:25:1.654, -0.002, 0.003, 1.000, 0.000, 0.000, 0.000, 0.000, -0.005, 0.000, -43.000, 230.000, -403.000, 29.72,
 00:25:01.919,COM9, 2025-8-18 0:25:1.656, -0.002, 0.003, 1.000, 0.000, 0.000, 0.000, 0.000, -0.005, 0.000, -43.000, 230.000, -403.000, 29.72,
 00:25:01.921,COM9, 2025-8-18 0:25:1.658, -0.002, 0.003, 1.000, 0.000, 0.000, 0.000, 0.000, -0.005, 0.000, -46.000, 229.000, -400.000, 29.72,
 00:25:01.922,COM9, 2025-8-18 0:25:1.660, -0.002, 0.003, 1.000, 0.000, 0.000, 0.000, 0.000, -0.005, 0.000, -46.000, 229.000, -400.000, 29.72,
 00:25:01.925,COM9, 2025-8-18 0:25:1.662, -0.002, 0.003, 1.000, 0.000, 0.000, 0.000, 0.000, -0.005, -0.005, -46.000, 229.000, -400.000, 29.72,
 00:25:01.927,COM9, 2025-8-18 0:25:1.664, -0.002, 0.003, 1.000, 0.000, 0.000, 0.000, 0.000, -0.005, -0.005, -46.000, 229.000, -400.000, 29.72,
 00:25:01.930,COM9, 2025-8-18 0:25:1.666, -0.002, 0.003, 1.000, 0.000, 0.000, 0.000, 0.000, -0.005, -0.011, -46.000, 229.000, -400.000, 29.72,
 00:25:01.931,COM9, 2025-8-18 0:25:1.668, -0.002, 0.003, 1.000, 0.000, 0.000, 0.000, 0.000, -0.005, -0.016, -45.000, 230.000, -401.000, 29.72,
 00:25:01.933,COM9, 2025-8-18 0:25:1.670, -0.002, 0.003, 1.000, 0.000, 0.000, 0.000, 0.000, -0.005, -0.016, -45.000, 230.000, -401.000, 29.72,
 00:25:01.934,COM9, 2025-8-18 0:25:1.672, -0.002, 0.003, 1.000, 0.000, 0.000, 0.000, 0.000, -0.005, -0.016, -45.000, 230.000, -401.000, 29.71,
 00:25:01.937,COM9, 2025-8-18 0:25:1.674, -0.002, 0.003, 1.000, 0.000, 0.000, 0.000, 0.000, -0.005, -0.022, -45.000, 230.000, -401.000, 29.71,
 00:25:01.939,COM9, 2025-8-18 0:25:1.676, -0.002, 0.003, 1.000, 0.000, 0.000, 0.000, 0.000, -0.005, -0.022, -45.000, 230.000, -401.000, 29.71,
 00:25:01.942,COM9, 2025-8-18 0:25:1.678, -0.002, 0.003, 1.000, 0.000, 0.000, 0.000, 0.000, -0.005, -0.022, -44.000, 231.000, -402.000, 29.71,
 00:25:01.943,COM9, 2025-8-18 0:25:1.680, -0.002, 0.003, 1.000, 0.000, 0.000, 0.000, 0.000, -0.005, -0.022, -44.000, 231.000, -402.000, 29.71,
 00:25:01.945,COM9, 2025-8-18 0:25:1.682, -0.002, 0.003, 1.000, 0.000, 0.000, 0.000, 0.000, -0.005, -0.022, -44.000, 231.000, -402.000, 29.71,
 00:25:01.946,COM9, 2025-8-18 0:25:1.684, -0.002, 0.003, 1.000, 0.000, 0.000, 0.000, 0.000, -0.005, -0.022, -44.000, 231.000, -402.000, 29.71,
 00:25:01.949,COM9, 2025-8-18 0:25:1.686, -0.002, 0.003, 1.000, 0.000, 0.000, 0.000, 0.000, -0.005, -0.022, -44.000, 231.000, -402.000, 29.71,
 00:25:01.951,COM9, 2025-8-18 0:25:1.688, -0.002, 0.003, 1.000, 0.000, 0.000, 0.000, 0.000, -0.005, -0.022, -42.000, 228.000, -401.000, 29.71,
 00:25:01.954,COM9, 2025-8-18 0:25:1.690, -0.002, 0.003, 1.000, 0.000, 0.000, 0.000, 0.000, -0.005, -0.022, -42.000, 228.000, -401.000, 29.72,
 00:25:01.955,COM9, 2025-8-18 0:25:1.692, -0.002, 0.003, 1.000, 0.000, 0.000, 0.000, 0.000, -0.005, -0.022, -42.000, 228.000, -401.000, 29.72,
 00:25:01.957,COM9, 2025-8-18 0:25:1.694, -0.002, 0.003, 1.000, 0.000, 0.000, 0.000, 0.000, -0.005, -0.016, -42.000, 228.000, -401.000, 29.72,
 00:25:01.960,COM9, 2025-8-18 0:25:1.696, -0.002, 0.003, 1.000, 0.000, 0.000, 0.000, 0.000, -0.005, -0.016, -42.000, 228.000, -401.000, 29.72,
 00:25:01.961,COM9, 2025-8-18 0:25:1.698, -0.002, 0.003, 1.000, 0.000, 0.000, 0.000, 0.000, -0.005, -0.016, -44.000, 233.000, -400.000, 29.72,
 00:25:01.963,COM9, 2025-8-18 0:25:1.700, -0.002, 0.003, 1.000, 0.000, 0.000, 0.000, 0.000, -0.005, -0.016, -44.000, 233.000, -400.000, 29.72,
 00:25:01.964,COM9, 2025-8-18 0:25:1.702, -0.002, 0.003, 1.000, 0.000, 0.000, 0.000, 0.000, -0.005, -0.016, -44.000, 233.000, -400.000, 29.72,
 00:25:01.967,COM9, 2025-8-18 0:25:1.704, -0.002, 0.003, 1.000, 0.000, 0.000, 0.000, 0.000, -0.005, -0.016, -44.000, 233.000, -400.000, 29.72,
 00:25:01.969,COM9, 2025-8-18 0:25:1.706, -0.002, 0.003, 1.000, 0.000, 0.000, 0.000, 0.000, -0.005, -0.016, -44.000, 233.000, -400.000, 29.72,
 00:25:01.972,COM9, 2025-8-18 0:25:1.708, -0.001, 0.003, 1.000, 0.000, 0.000, 0.000, 0.000, -0.005, -0.016, -45.000, 232.000, -393.000, 29.72,
 00:25:01.973,COM9, 2025-8-18 0:25:1.710, -0.001, 0.003, 1.000, 0.000, 0.000, 0.000, 0.000, -0.005, -0.016, -45.000, 232.000, -393.000, 29.70,
 00:25:01.975,COM9, 2025-8-18 0:25:1.712, -0.001, 0.003, 1.000, 0.000, 0.000, 0.000, 0.000, -0.005, -0.016, -45.000, 232.000, -393.000, 29.70,
 00:25:01.976,COM9, 2025-8-18 0:25:1.714, -0.001, 0.003, 1.000, 0.000, 0.000, 0.000, 0.000, -0.005, -0.016, -45.000, 232.000, -393.000, 29.70,
 00:25:01.979,COM9, 2025-8-18 0:25:1.716, -0.001, 0.003, 1.000, 0.000, 0.000, 0.000, 0.000, -0.005, -0.022, -45.000, 232.000, -393.000, 29.70,
 00:25:01.981,COM9, 2025-8-18 0:25:1.718, -0.001, 0.003, 1.000, 0.000, 0.000, 0.000, 0.000, -0.005, -0.022, -45.000, 233.000, -402.000, 29.70,
 00:25:01.984,COM9, 2025-8-18 0:25:1.720, -0.001, 0.003, 1.000, 0.000, 0.000, 0.000, 0.000, -0.005, -0.022, -45.000, 233.000, -402.000, 29.70,
 00:25:01.985,COM9, 2025-8-18 0:25:1.722, -0.001, 0.003, 1.000, 0.000, 0.000, 0.000, 0.000, -0.005, -0.022, -45.000, 233.000, -402.000, 29.70,
 00:25:01.987,COM9, 2025-8-18 0:25:1.724, -0.001, 0.003, 1.000, 0.000, 0.000, 0.000, 0.000, -0.005, -0.022, -45.000, 233.000, -402.000, 29.70,
 00:25:01.990,COM9, 2025-8-18 0:25:1.726, -0.001, 0.003, 1.000, 0.000, 0.000, 0.000, 0.000, -0.005, -0.022, -45.000, 233.000, -402.000, 29.70,
 00:25:01.991,COM9, 2025-8-18 0:25:1.728, -0.002, 0.003, 1.000, 0.000, 0.000, 0.000, 0.000, -0.005, -0.027, -44.000, 228.000, -401.000, 29.70,
 00:25:01.993,COM9, 2025-8-18 0:25:1.730, -0.002, 0.004, 1.000, 0.000, 0.000, 0.000, 0.000, -0.005, -0.027, -44.000, 228.000, -401.000, 29.71,
 00:25:01.996,COM9, 2025-8-18 0:25:1.732, -0.002, 0.004, 1.000, 0.000, 0.000, 0.000, 0.000, -0.005, -0.027, -44.000, 228.000, -401.000, 29.71,
 00:25:01.997,COM9, 2025-8-18 0:25:1.734, -0.002, 0.004, 1.000, 0.000, 0.000, 0.000, 0.000, -0.005, -0.027, -44.000, 228.000, -401.000, 29.71,
 00:25:01.999,COM9, 2025-8-18 0:25:1.736, -0.002, 0.004, 1.000, 0.000, 0.000, 0.000, 0.000, -0.005, -0.027, -44.000, 228.000, -401.000, 29.71,
 00:25:02.000,COM9, 2025-8-18 0:25:1.738, -0.002, 0.004, 1.000, 0.000, 0.000, 0.000, 0.000, -0.005, -0.027, -42.000, 230.000, -398.000, 29.71,
 00:25:02.003,COM9, 2025-8-18 0:25:1.740, -0.002, 0.004, 1.000, 0.000, 0.000, 0.000, 0.000, -0.005, -0.027, -42.000, 230.000, -398.000, 29.71,
 00:25:02.005,COM9, 2025-8-18 0:25:1.742, -0.002, 0.004, 1.000, 0.000, 0.000, 0.000, 0.000, -0.005, -0.022, -42.000, 230.000, -398.000, 29.71,
 00:25:02.006,COM9, 2025-8-18 0:25:1.744, -0.002, 0.004, 1.000, 0.000, 0.000, 0.000, 0.000, -0.005, -0.022, -42.000, 230.000, -398.000, 29.71,
 00:25:02.010,COM9, 2025-8-18 0:25:1.746, -0.002, 0.004, 1.000, 0.000, 0.000, 0.000, 0.000, -0.005, -0.016, -42.000, 230.000, -398.000, 29.71,
 00:25:02.011,COM9, 2025-8-18 0:25:1.748, -0.002, 0.004, 1.000, 0.000, 0.000, 0.000, 0.000, -0.005, -0.016, -43.000, 229.000, -400.000, 29.71,
 00:25:02.013,COM9, 2025-8-18 0:25:1.750, -0.002, 0.004, 1.000, 0.000, 0.000, 0.000, 0.000, -0.005, -0.016, -43.000, 229.000, -400.000, 29.77,
 00:25:02.016,COM9, 2025-8-18 0:25:1.752, -0.002, 0.004, 1.000, 0.000, 0.000, 0.000, 0.000, -0.005, -0.016, -43.000, 229.000, -400.000, 29.77,
 00:25:02.017,COM9, 2025-8-18 0:25:1.754, -0.002, 0.004, 1.000, 0.000, 0.000, 0.000, 0.000, -0.005, -0.016, -43.000, 229.000, -400.000, 29.77,
 00:25:02.019,COM9, 2025-8-18 0:25:1.756, -0.002, 0.004, 1.000, 0.000, 0.000, 0.000, 0.000, -0.005, -0.011, -43.000, 229.000, -400.000, 29.77,
 00:25:02.020,COM9, 2025-8-18 0:25:1.758, -0.002, 0.004, 1.000, 0.000, 0.000, 0.000, 0.000, -0.005, -0.016, -46.000, 231.000, -405.000, 29.77,
 00:25:02.023,COM9, 2025-8-18 0:25:1.760, -0.002, 0.004, 1.000, 0.000, 0.000, 0.000, 0.000, -0.005, -0.016, -46.000, 231.000, -405.000, 29.77,
 00:25:02.026,COM9, 2025-8-18 0:25:1.764, -0.002, 0.004, 1.000, 0.000, 0.000, 0.000, 0.000, -0.005, -0.022, -46.000, 231.000, -405.000, 29.77,
 00:25:02.029,COM9, 2025-8-18 0:25:1.766, -0.002, 0.004, 1.000, 0.000, 0.000, 0.000, 0.000, -0.005, -0.027, -46.000, 231.000, -405.000, 29.77,
 00:25:02.031,COM9, 2025-8-18 0:25:1.768, -0.002, 0.004, 1.000, 0.000, 0.000, 0.000, 0.000, -0.005, -0.027, -45.000, 232.000, -403.000, 29.77,
 00:25:02.034,COM9, 2025-8-18 0:25:1.770, -0.002, 0.003, 1.000, 0.000, 0.000, 0.000, 0.000, -0.005, -0.027, -45.000, 232.000, -403.000, 29.75,
 00:25:02.035,COM9, 2025-8-18 0:25:1.772, -0.002, 0.003, 1.000, 0.000, 0.000, 0.000, 0.000, -0.005, -0.033, -45.000, 232.000, -403.000, 29.75,
 00:25:02.037,COM9, 2025-8-18 0:25:1.774, -0.002, 0.003, 1.000, 0.000, 0.000, 0.000, 0.000, -0.005, -0.033, -45.000, 232.000, -403.000, 29.75,
 00:25:02.040,COM9, 2025-8-18 0:25:1.776, -0.002, 0.003, 1.000, 0.000, 0.000, 0.000, 0.000, -0.005, -0.033, -45.000, 232.000, -403.000, 29.75,
 00:25:02.041,COM9, 2025-8-18 0:25:1.778, -0.002, 0.003, 1.000, 0.000, 0.000, 0.000, 0.000, -0.005, -0.033, -42.000, 230.000, -403.000, 29.75,
 00:25:02.043,COM9, 2025-8-18 0:25:1.780, -0.002, 0.003, 1.000, 0.000, 0.000, 0.000, 0.000, -0.005, -0.027, -42.000, 230.000, -403.000, 29.75,
 00:25:02.046,COM9, 2025-8-18 0:25:1.782, -0.002, 0.003, 1.000, 0.000, 0.000, 0.000, 0.000, -0.005, -0.027, -42.000, 230.000, -403.000, 29.75,
 00:25:02.047,COM9, 2025-8-18 0:25:1.784, -0.002, 0.003, 1.000, 0.000, 0.000, 0.000, 0.000, -0.005, -0.027, -42.000, 230.000, -403.000, 29.75,
 00:25:02.049,COM9, 2025-8-18 0:25:1.786, -0.002, 0.003, 1.000, 0.000, 0.000, 0.000, 0.000, -0.005, -0.022, -42.000, 230.000, -403.000, 29.75,
 00:25:02.052,COM9, 2025-8-18 0:25:1.788, -0.002, 0.003, 1.000, 0.000, 0.000, 0.000, 0.000, -0.005, -0.022, -42.000, 228.000, -403.000, 29.75,
 00:25:02.054,COM9, 2025-8-18 0:25:1.790, -0.002, 0.004, 1.000, 0.000, 0.000, 0.000, 0.000, -0.005, -0.016, -42.000, 228.000, -403.000, 29.74,
 00:25:02.055,COM9, 2025-8-18 0:25:1.792, -0.002, 0.004, 1.000, 0.000, 0.000, 0.000, 0.000, -0.005, -0.016, -42.000, 228.000, -403.000, 29.74,
 00:25:02.057,COM9, 2025-8-18 0:25:1.794, -0.002, 0.004, 1.000, 0.000, 0.000, 0.000, 0.000, -0.005, -0.016, -42.000, 228.000, -403.000, 29.74,
 00:25:02.060,COM9, 2025-8-18 0:25:1.796, -0.002, 0.004, 1.000, 0.000, 0.000, 0.000, 0.000, -0.005, -0.011, -42.000, 228.000, -403.000, 29.74,
 00:25:02.061,COM9, 2025-8-18 0:25:1.798, -0.002, 0.004, 1.000, 0.000, 0.000, 0.000, 0.000, -0.005, -0.011, -43.000, 230.000, -401.000, 29.74,
 00:25:02.063,COM9, 2025-8-18 0:25:1.800, -0.002, 0.004, 1.000, 0.000, 0.000, 0.000, 0.000, -0.005, -0.011, -43.000, 230.000, -401.000, 29.74,
 00:25:02.066,COM9, 2025-8-18 0:25:1.802, -0.002, 0.004, 1.000, 0.000, 0.000, 0.000, 0.000, -0.005, -0.011, -43.000, 230.000, -401.000, 29.74,
 00:25:02.067,COM9, 2025-8-18 0:25:1.804, -0.002, 0.004, 1.000, 0.000, 0.000, 0.000, 0.000, -0.005, -0.011, -43.000, 230.000, -401.000, 29.74,
 00:25:02.070,COM9, 2025-8-18 0:25:1.806, -0.002, 0.004, 1.000, 0.000, 0.000, 0.000, 0.000, -0.005, -0.011, -43.000, 230.000, -401.000, 29.74,
 00:25:02.072,COM9, 2025-8-18 0:25:1.808, -0.002, 0.004, 1.000, 0.000, 0.000, 0.000, 0.000, -0.005, -0.005, -43.000, 232.000, -398.000, 29.74,
 00:25:02.073,COM9, 2025-8-18 0:25:1.810, -0.002, 0.004, 1.000, 0.000, 0.000, 0.000, 0.000, -0.005, -0.005, -43.000, 232.000, -398.000, 29.73,
 00:25:02.075,COM9, 2025-8-18 0:25:1.812, -0.002, 0.004, 1.000, 0.000, 0.000, 0.000, 0.000, -0.005, -0.005, -43.000, 232.000, -398.000, 29.73,
 00:25:02.078,COM9, 2025-8-18 0:25:1.814, -0.002, 0.004, 1.000, 0.000, 0.000, 0.000, 0.000, -0.005, -0.005, -43.000, 232.000, -398.000, 29.73,
 00:25:02.079,COM9, 2025-8-18 0:25:1.816, -0.002, 0.004, 1.000, 0.000, 0.000, 0.000, 0.000, -0.005, -0.005, -43.000, 232.000, -398.000, 29.73,
 00:25:02.081,COM9, 2025-8-18 0:25:1.818, -0.002, 0.004, 1.000, 0.000, 0.000, 0.000, 0.000, -0.005, 0.000, -40.000, 228.000, -398.000, 29.73,
 00:25:02.084,COM9, 2025-8-18 0:25:1.820, -0.002, 0.004, 1.000, 0.000, 0.000, 0.000, 0.000, -0.005, 0.000, -40.000, 228.000, -398.000, 29.73,
 00:25:02.085,COM9, 2025-8-18 0:25:1.822, -0.002, 0.004, 1.000, 0.000, 0.000, 0.000, 0.000, -0.005, 0.005, -40.000, 228.000, -398.000, 29.73,
 00:25:02.087,COM9, 2025-8-18 0:25:1.824, -0.002, 0.004, 1.000, 0.000, 0.000, 0.000, 0.000, -0.005, 0.005, -40.000, 228.000, -398.000, 29.73,
 00:25:02.090,COM9, 2025-8-18 0:25:1.826, -0.002, 0.004, 1.000, 0.000, 0.000, 0.000, 0.000, -0.005, 0.011, -40.000, 228.000, -398.000, 29.73,
 00:25:02.091,COM9, 2025-8-18 0:25:1.828, -0.002, 0.004, 1.000, 0.000, 0.000, 0.000, 0.000, -0.005, 0.016, -44.000, 229.000, -400.000, 29.73,
 00:25:02.093,COM9, 2025-8-18 0:25:1.830, -0.002, 0.003, 1.000, 0.000, 0.000, 0.000, 0.000, -0.005, 0.011, -44.000, 229.000, -400.000, 29.72,
 00:25:02.096,COM9, 2025-8-18 0:25:1.832, -0.002, 0.003, 1.000, 0.000, 0.000, 0.000, 0.000, -0.005, 0.011, -44.000, 229.000, -400.000, 29.72,
 00:25:02.097,COM9, 2025-8-18 0:25:1.834, -0.002, 0.003, 1.000, 0.000, 0.000, 0.000, 0.005, -0.005, 0.011, -44.000, 229.000, -400.000, 29.72,
 00:25:02.100,COM9, 2025-8-18 0:25:1.836, -0.002, 0.003, 1.000, 0.000, 0.000, 0.000, 0.005, -0.005, 0.011, -44.000, 229.000, -400.000, 29.72,
 00:25:02.102,COM9, 2025-8-18 0:25:1.838, -0.002, 0.003, 1.000, 0.000, 0.000, 0.000, 0.005, -0.005, 0.011, -44.000, 227.000, -402.000, 29.72,
 00:25:02.103,COM9, 2025-8-18 0:25:1.840, -0.002, 0.003, 1.000, 0.000, 0.000, 0.000, 0.005, -0.005, 0.005, -44.000, 227.000, -402.000, 29.72,
 00:25:02.105,COM9, 2025-8-18 0:25:1.842, -0.002, 0.003, 1.000, 0.000, 0.000, 0.000, 0.005, -0.005, 0.005, -44.000, 227.000, -402.000, 29.72,
 00:25:02.108,COM9, 2025-8-18 0:25:1.844, -0.002, 0.003, 1.000, 0.000, 0.000, 0.000, 0.005, -0.005, 0.005, -44.000, 227.000, -402.000, 29.72,
 00:25:02.109,COM9, 2025-8-18 0:25:1.846, -0.002, 0.003, 1.000, 0.000, 0.000, 0.000, 0.005, -0.005, 0.000, -44.000, 227.000, -402.000, 29.72,
 00:25:02.111,COM9, 2025-8-18 0:25:1.848, -0.002, 0.003, 1.000, 0.000, 0.000, 0.000, 0.005, -0.005, 0.000, -45.000, 229.000, -402.000, 29.72,
 00:25:02.114,COM9, 2025-8-18 0:25:1.850, -0.002, 0.003, 0.999, 0.000, 0.000, 0.000, 0.005, -0.005, 0.000, -45.000, 229.000, -402.000, 29.72,
 00:25:02.115,COM9, 2025-8-18 0:25:1.852, -0.002, 0.003, 0.999, 0.000, 0.000, 0.000, 0.005, -0.005, 0.000, -45.000, 229.000, -402.000, 29.72,
 00:25:02.117,COM9, 2025-8-18 0:25:1.854, -0.002, 0.003, 0.999, 0.000, 0.000, 0.000, 0.005, -0.005, 0.000, -45.000, 229.000, -402.000, 29.72,
 00:25:02.120,COM9, 2025-8-18 0:25:1.856, -0.002, 0.003, 0.999, 0.000, 0.000, 0.000, 0.005, -0.005, -0.005, -45.000, 229.000, -402.000, 29.72,
 00:25:02.121,COM9, 2025-8-18 0:25:1.858, -0.002, 0.003, 0.999, 0.000, 0.000, 0.000, 0.005, -0.005, -0.005, -44.000, 230.000, -398.000, 29.72,
 00:25:02.123,COM9, 2025-8-18 0:25:1.860, -0.002, 0.003, 0.999, 0.000, 0.000, 0.000, 0.005, -0.005, -0.005, -44.000, 230.000, -398.000, 29.72,
 00:25:02.126,COM9, 2025-8-18 0:25:1.862, -0.002, 0.003, 0.999, 0.000, 0.000, 0.000, 0.005, -0.005, -0.005, -44.000, 230.000, -398.000, 29.72,
 00:25:02.127,COM9, 2025-8-18 0:25:1.864, -0.002, 0.003, 0.999, 0.000, 0.000, 0.000, 0.005, -0.005, -0.005, -44.000, 230.000, -398.000, 29.72,
 00:25:02.129,COM9, 2025-8-18 0:25:1.866, -0.002, 0.003, 0.999, 0.000, 0.000, 0.000, 0.005, -0.005, -0.005, -44.000, 230.000, -398.000, 29.72,
 00:25:02.132,COM9, 2025-8-18 0:25:1.868, -0.002, 0.003, 0.999, 0.000, 0.000, 0.000, 0.005, -0.005, -0.005, -45.000, 231.000, -405.000, 29.72,
 00:25:02.133,COM9, 2025-8-18 0:25:1.870, -0.002, 0.003, 0.999, 0.000, 0.000, 0.000, 0.005, -0.005, -0.011, -45.000, 231.000, -405.000, 29.71,
 00:25:02.135,COM9, 2025-8-18 0:25:1.872, -0.002, 0.003, 0.999, 0.000, 0.000, 0.000, 0.005, -0.005, -0.011, -45.000, 231.000, -405.000, 29.71,
 00:25:02.138,COM9, 2025-8-18 0:25:1.874, -0.002, 0.003, 0.999, 0.000, 0.000, 0.000, 0.005, -0.005, -0.011, -45.000, 231.000, -405.000, 29.71,
 00:25:02.139,COM9, 2025-8-18 0:25:1.876, -0.002, 0.003, 0.999, 0.000, 0.000, 0.000, 0.005, -0.005, -0.016, -45.000, 231.000, -405.000, 29.71,
 00:25:02.141,COM9, 2025-8-18 0:25:1.878, -0.002, 0.003, 0.999, 0.000, 0.000, 0.000, 0.000, -0.005, -0.011, -42.000, 230.000, -403.000, 29.71,
 00:25:02.144,COM9, 2025-8-18 0:25:1.880, -0.002, 0.003, 0.999, 0.000, 0.000, 0.000, 0.000, -0.005, -0.011, -42.000, 230.000, -403.000, 29.71,
 00:25:02.145,COM9, 2025-8-18 0:25:1.882, -0.002, 0.003, 0.999, 0.000, 0.000, 0.000, 0.000, -0.005, -0.011, -42.000, 230.000, -403.000, 29.71,
 00:25:02.147,COM9, 2025-8-18 0:25:1.884, -0.002, 0.003, 0.999, 0.000, 0.000, 0.000, 0.000, -0.005, -0.005, -42.000, 230.000, -403.000, 29.71,
 00:25:02.150,COM9, 2025-8-18 0:25:1.886, -0.002, 0.003, 0.999, 0.000, 0.000, 0.000, 0.000, -0.005, -0.005, -42.000, 230.000, -403.000, 29.71,
 00:25:02.151,COM9, 2025-8-18 0:25:1.888, -0.002, 0.003, 0.999, 0.000, 0.000, 0.000, 0.000, -0.005, -0.005, -43.000, 231.000, -400.000, 29.71,
 00:25:02.153,COM9, 2025-8-18 0:25:1.890, -0.002, 0.003, 1.000, 0.000, 0.000, 0.000, 0.000, -0.005, 0.000, -43.000, 231.000, -400.000, 29.73,
 00:25:02.156,COM9, 2025-8-18 0:25:1.892, -0.002, 0.003, 1.000, 0.000, 0.000, 0.000, 0.000, -0.005, 0.000, -43.000, 231.000, -400.000, 29.73,
 00:25:02.157,COM9, 2025-8-18 0:25:1.894, -0.002, 0.003, 1.000, 0.000, 0.000, 0.000, 0.000, -0.005, 0.000, -43.000, 231.000, -400.000, 29.73,
 00:25:02.159,COM9, 2025-8-18 0:25:1.896, -0.002, 0.003, 1.000, 0.000, 0.000, 0.000, 0.000, -0.005, 0.000, -43.000, 231.000, -400.000, 29.73,
 00:25:02.162,COM9, 2025-8-18 0:25:1.898, -0.002, 0.003, 1.000, 0.000, 0.000, 0.000, 0.000, -0.005, 0.000, -42.000, 229.000, -402.000, 29.73,
 00:25:02.163,COM9, 2025-8-18 0:25:1.900, -0.002, 0.003, 1.000, 0.000, 0.000, 0.000, 0.000, -0.005, 0.000, -42.000, 229.000, -402.000, 29.73,
 00:25:02.165,COM9, 2025-8-18 0:25:1.902, -0.002, 0.003, 1.000, 0.000, 0.000, 0.000, 0.000, -0.005, 0.000, -42.000, 229.000, -402.000, 29.73,
 00:25:02.168,COM9, 2025-8-18 0:25:1.904, -0.002, 0.003, 1.000, 0.000, 0.000, 0.000, 0.000, -0.005, 0.005, -42.000, 229.000, -402.000, 29.73,
 00:25:02.169,COM9, 2025-8-18 0:25:1.906, -0.002, 0.003, 1.000, 0.000, 0.000, 0.000, 0.000, -0.005, 0.005, -42.000, 229.000, -402.000, 29.73,
 00:25:02.171,COM9, 2025-8-18 0:25:1.908, -0.002, 0.003, 1.000, 0.000, 0.000, 0.000, 0.000, -0.005, 0.005, -46.000, 230.000, -406.000, 29.73,
 00:25:02.174,COM9, 2025-8-18 0:25:1.910, -0.002, 0.003, 1.000, 0.000, 0.000, 0.000, 0.000, -0.005, 0.000, -46.000, 230.000, -406.000, 29.70,
 00:25:02.175,COM9, 2025-8-18 0:25:1.912, -0.002, 0.003, 1.000, 0.000, 0.000, 0.000, 0.000, -0.005, 0.000, -46.000, 230.000, -406.000, 29.70,
 00:25:02.177,COM9, 2025-8-18 0:25:1.914, -0.002, 0.003, 1.000, 0.000, 0.000, 0.000, 0.000, -0.005, 0.000, -46.000, 230.000, -406.000, 29.70,
 00:25:02.180,COM9, 2025-8-18 0:25:1.916, -0.002, 0.003, 1.000, 0.000, 0.000, 0.000, 0.000, -0.005, -0.005, -46.000, 230.000, -406.000, 29.70,
 00:25:02.181,COM9, 2025-8-18 0:25:1.918, -0.002, 0.003, 1.000, 0.000, 0.000, 0.000, 0.000, -0.005, -0.005, -44.000, 233.000, -400.000, 29.70,
 00:25:02.184,COM9, 2025-8-18 0:25:1.920, -0.002, 0.003, 1.000, 0.000, 0.000, 0.000, 0.000, -0.005, -0.005, -44.000, 233.000, -400.000, 29.70,
 00:25:02.185,COM9, 2025-8-18 0:25:1.922, -0.002, 0.003, 1.000, 0.000, 0.000, 0.000, 0.000, -0.005, -0.005, -44.000, 233.000, -400.000, 29.70,
 00:25:02.187,COM9, 2025-8-18 0:25:1.924, -0.002, 0.003, 1.000, 0.000, 0.000, 0.000, 0.000, -0.005, -0.005, -44.000, 233.000, -400.000, 29.70,
 00:25:02.190,COM9, 2025-8-18 0:25:1.926, -0.002, 0.003, 1.000, 0.000, 0.000, 0.000, 0.000, -0.005, -0.005, -44.000, 233.000, -400.000, 29.70,
 00:25:02.191,COM9, 2025-8-18 0:25:1.928, -0.002, 0.003, 1.000, 0.000, 0.000, 0.000, 0.000, -0.005, -0.005, -45.000, 231.000, -400.000, 29.70,
 00:25:02.193,COM9, 2025-8-18 0:25:1.930, -0.002, 0.003, 1.001, 0.000, 0.000, 0.000, 0.000, -0.005, -0.005, -45.000, 231.000, -400.000, 29.72,
 00:25:02.196,COM9, 2025-8-18 0:25:1.932, -0.002, 0.003, 1.001, 0.000, 0.000, 0.000, 0.000, -0.005, -0.011, -45.000, 231.000, -400.000, 29.72,
 00:25:02.197,COM9, 2025-8-18 0:25:1.934, -0.002, 0.003, 1.001, 0.000, 0.000, 0.000, 0.000, -0.005, -0.011, -45.000, 231.000, -400.000, 29.72,
 00:25:02.199,COM9, 2025-8-18 0:25:1.936, -0.002, 0.003, 1.001, 0.000, 0.000, 0.000, 0.000, -0.005, -0.011, -45.000, 231.000, -400.000, 29.72,
 00:25:02.202,COM9, 2025-8-18 0:25:1.938, -0.002, 0.003, 1.001, 0.000, 0.000, 0.000, 0.000, -0.005, -0.011, -41.000, 230.000, -398.000, 29.72,
 00:25:02.203,COM9, 2025-8-18 0:25:1.940, -0.002, 0.003, 1.001, 0.000, 0.000, 0.000, 0.000, -0.005, -0.005, -41.000, 230.000, -398.000, 29.72,
 00:25:02.205,COM9, 2025-8-18 0:25:1.942, -0.002, 0.003, 1.001, 0.000, 0.000, 0.000, 0.000, -0.005, -0.005, -41.000, 230.000, -398.000, 29.72,
 00:25:02.208,COM9, 2025-8-18 0:25:1.944, -0.002, 0.003, 1.001, 0.000, 0.000, 0.000, 0.000, -0.005, 0.000, -41.000, 230.000, -398.000, 29.72,
 00:25:02.209,COM9, 2025-8-18 0:25:1.946, -0.002, 0.003, 1.001, 0.000, 0.000, 0.000, 0.000, -0.005, 0.000, -41.000, 230.000, -398.000, 29.72,
 00:25:02.211,COM9, 2025-8-18 0:25:1.948, -0.002, 0.003, 1.001, 0.000, 0.000, 0.000, 0.000, -0.005, 0.000, -43.000, 232.000, -401.000, 29.72,
 00:25:02.214,COM9, 2025-8-18 0:25:1.950, -0.002, 0.003, 1.000, 0.000, 0.000, 0.000, 0.000, -0.005, 0.000, -43.000, 232.000, -401.000, 29.70,
 00:25:02.215,COM9, 2025-8-18 0:25:1.952, -0.002, 0.003, 1.000, 0.000, 0.000, 0.000, 0.000, -0.005, 0.005, -43.000, 232.000, -401.000, 29.70,
 00:25:02.217,COM9, 2025-8-18 0:25:1.954, -0.002, 0.003, 1.000, 0.000, 0.000, 0.000, 0.000, -0.005, 0.005, -43.000, 232.000, -401.000, 29.70,
 00:25:02.220,COM9, 2025-8-18 0:25:1.956, -0.002, 0.003, 1.000, 0.000, 0.000, 0.000, 0.000, -0.005, 0.005, -43.000, 232.000, -401.000, 29.70,
 00:25:02.221,COM9, 2025-8-18 0:25:1.958, -0.002, 0.003, 1.000, 0.000, 0.000, 0.000, 0.000, -0.005, 0.005, -45.000, 230.000, -401.000, 29.70,
 00:25:02.223,COM9, 2025-8-18 0:25:1.960, -0.002, 0.003, 1.000, 0.000, 0.000, 0.000, 0.000, -0.005, 0.005, -45.000, 230.000, -401.000, 29.70,
 00:25:02.226,COM9, 2025-8-18 0:25:1.962, -0.002, 0.003, 1.000, 0.000, 0.000, 0.000, 0.000, -0.005, 0.000, -45.000, 230.000, -401.000, 29.70,
 00:25:02.227,COM9, 2025-8-18 0:25:1.964, -0.002, 0.003, 1.000, 0.000, 0.000, 0.000, 0.000, -0.005, 0.000, -45.000, 230.000, -401.000, 29.70,
 00:25:02.230,COM9, 2025-8-18 0:25:1.966, -0.002, 0.003, 1.000, 0.000, 0.000, 0.000, 0.000, -0.005, 0.000, -45.000, 230.000, -401.000, 29.70,
 00:25:02.232,COM9, 2025-8-18 0:25:1.968, -0.003, 0.003, 1.000, 0.000, 0.000, 0.000, 0.000, -0.005, 0.000, -43.000, 228.000, -401.000, 29.70,
 00:25:02.233,COM9, 2025-8-18 0:25:1.970, -0.003, 0.003, 1.000, 0.000, 0.000, 0.000, 0.000, -0.005, 0.000, -43.000, 228.000, -401.000, 29.73,
 00:25:02.235,COM9, 2025-8-18 0:25:1.972, -0.003, 0.003, 1.000, 0.000, 0.000, 0.000, 0.000, -0.005, 0.000, -43.000, 228.000, -401.000, 29.73,
 00:25:02.238,COM9, 2025-8-18 0:25:1.974, -0.003, 0.003, 1.000, 0.000, 0.000, 0.000, 0.000, -0.005, 0.000, -43.000, 228.000, -401.000, 29.73,
 00:25:02.239,COM9, 2025-8-18 0:25:1.976, -0.003, 0.003, 1.000, 0.000, 0.000, 0.000, 0.000, -0.005, 0.000, -43.000, 228.000, -401.000, 29.73,
 00:25:02.241,COM9, 2025-8-18 0:25:1.978, -0.003, 0.003, 1.000, 0.000, 0.000, 0.000, 0.000, -0.005, 0.000, -43.000, 232.000, -401.000, 29.73,
 00:25:02.244,COM9, 2025-8-18 0:25:1.980, -0.003, 0.003, 1.000, 0.000, 0.000, 0.000, 0.000, -0.005, 0.000, -43.000, 232.000, -401.000, 29.73,
 00:25:02.245,COM9, 2025-8-18 0:25:1.982, -0.003, 0.003, 1.000, 0.000, 0.000, 0.000, 0.000, -0.005, 0.000, -43.000, 232.000, -401.000, 29.73,
 00:25:02.247,COM9, 2025-8-18 0:25:1.984, -0.003, 0.003, 1.000, 0.000, 0.000, 0.000, 0.000, -0.005, 0.000, -43.000, 232.000, -401.000, 29.73,
 00:25:02.250,COM9, 2025-8-18 0:25:1.986, -0.003, 0.003, 1.000, 0.000, 0.000, 0.000, 0.000, -0.005, 0.000, -43.000, 232.000, -401.000, 29.73,
 00:25:02.251,COM9, 2025-8-18 0:25:1.988, -0.002, 0.003, 1.000, 0.000, 0.000, 0.000, 0.000, -0.005, 0.000, -44.000, 231.000, -400.000, 29.73,
 00:25:02.253,COM9, 2025-8-18 0:25:1.990, -0.002, 0.003, 1.000, 0.000, 0.000, 0.000, 0.000, -0.005, 0.000, -44.000, 231.000, -400.000, 29.73,
 00:25:02.256,COM9, 2025-8-18 0:25:1.992, -0.002, 0.003, 1.000, 0.000, 0.000, 0.000, 0.000, -0.005, 0.000, -44.000, 231.000, -400.000, 29.73,
 00:25:02.257,COM9, 2025-8-18 0:25:1.994, -0.002, 0.003, 1.000, 0.000, 0.000, 0.000, 0.000, -0.005, 0.000, -44.000, 231.000, -400.000, 29.73,
 00:25:02.259,COM9, 2025-8-18 0:25:1.996, -0.002, 0.003, 1.000, 0.000, 0.000, 0.000, 0.000, -0.005, 0.000, -44.000, 231.000, -400.000, 29.73,
 00:25:02.262,COM9, 2025-8-18 0:25:1.998, -0.002, 0.003, 1.000, 0.000, 0.000, 0.000, 0.000, -0.005, 0.000, -43.000, 229.000, -402.000, 29.73,
 00:25:02.263,COM9, 2025-8-18 0:25:2.000, -0.002, 0.003, 1.000, 0.000, 0.000, 0.000, 0.000, -0.005, 0.000, -43.000, 229.000, -402.000, 29.73,
 00:25:02.265,COM9, 2025-8-18 0:25:2.002, -0.002, 0.003, 1.000, 0.000, 0.000, 0.000, 0.000, -0.005, 0.000, -43.000, 229.000, -402.000, 29.73,
 00:25:02.268,COM9, 2025-8-18 0:25:2.004, -0.002, 0.003, 1.000, 0.000, 0.000, 0.000, 0.000, 0.000, 0.000, -43.000, 229.000, -402.000, 29.73,
 00:25:02.269,COM9, 2025-8-18 0:25:2.006, -0.002, 0.003, 1.000, 0.000, 0.000, 0.000, 0.000, 0.000, 0.000, -43.000, 229.000, -402.000, 29.73,
 00:25:02.271,COM9, 2025-8-18 0:25:2.008, -0.002, 0.003, 1.000, 0.000, 0.000, 0.000, 0.000, 0.000, 0.000, -45.000, 231.000, -402.000, 29.73,
 00:25:02.274,COM9, 2025-8-18 0:25:2.010, -0.002, 0.003, 0.999, 0.000, 0.000, 0.000, 0.000, 0.000, 0.000, -45.000, 231.000, -402.000, 29.70,
 00:25:02.275,COM9, 2025-8-18 0:25:2.012, -0.002, 0.003, 0.999, 0.000, 0.000, 0.000, 0.000, 0.000, 0.000, -45.000, 231.000, -402.000, 29.70,
 00:25:02.277,COM9, 2025-8-18 0:25:2.014, -0.002, 0.003, 0.999, 0.000, 0.000, 0.000, 0.000, 0.000, 0.000, -45.000, 231.000, -402.000, 29.70,
 00:25:02.280,COM9, 2025-8-18 0:25:2.016, -0.002, 0.003, 0.999, 0.000, 0.000, 0.000, 0.000, 0.000, -0.005, -45.000, 231.000, -402.000, 29.70,
 00:25:02.281,COM9, 2025-8-18 0:25:2.018, -0.002, 0.003, 0.999, 0.000, 0.000, 0.000, 0.000, 0.000, -0.005, -45.000, 232.000, -401.000, 29.70,
 00:25:02.283,COM9, 2025-8-18 0:25:2.020, -0.002, 0.003, 0.999, 0.000, 0.000, 0.000, 0.000, 0.000, -0.005, -45.000, 232.000, -401.000, 29.70,
 00:25:02.286,COM9, 2025-8-18 0:25:2.022, -0.002, 0.003, 0.999, 0.000, 0.000, 0.000, 0.000, 0.000, -0.011, -45.000, 232.000, -401.000, 29.70,
 00:25:02.287,COM9, 2025-8-18 0:25:2.024, -0.002, 0.003, 0.999, 0.000, 0.000, 0.000, 0.000, 0.000, -0.011, -45.000, 232.000, -401.000, 29.70,
 00:25:02.290,COM9, 2025-8-18 0:25:2.026, -0.002, 0.003, 0.999, 0.000, 0.000, 0.000, 0.000, 0.000, -0.011, -45.000, 232.000, -401.000, 29.70,
 00:25:02.292,COM9, 2025-8-18 0:25:2.028, -0.003, 0.003, 0.999, 0.000, 0.000, 0.000, 0.000, 0.000, -0.016, -45.000, 230.000, -401.000, 29.70,
 00:25:02.293,COM9, 2025-8-18 0:25:2.030, -0.003, 0.004, 1.000, 0.000, 0.000, 0.000, 0.000, 0.000, -0.016, -45.000, 230.000, -401.000, 29.72,
 00:25:02.295,COM9, 2025-8-18 0:25:2.032, -0.003, 0.004, 1.000, 0.000, 0.000, 0.000, 0.000, 0.000, -0.016, -45.000, 230.000, -401.000, 29.72,
 00:25:02.298,COM9, 2025-8-18 0:25:2.034, -0.003, 0.004, 1.000, 0.000, 0.000, 0.000, 0.000, 0.000, -0.022, -45.000, 230.000, -401.000, 29.72,
 00:25:02.299,COM9, 2025-8-18 0:25:2.036, -0.003, 0.004, 1.000, 0.000, 0.000, 0.000, 0.000, 0.000, -0.022, -45.000, 230.000, -401.000, 29.72,
 00:25:02.301,COM9, 2025-8-18 0:25:2.038, -0.003, 0.004, 1.000, 0.000, 0.000, 0.000, 0.000, 0.000, -0.027, -45.000, 228.000, -401.000, 29.72,
 00:25:02.304,COM9, 2025-8-18 0:25:2.040, -0.003, 0.004, 1.000, 0.000, 0.000, 0.000, 0.000, 0.000, -0.027, -45.000, 228.000, -401.000, 29.72,
 00:25:02.305,COM9, 2025-8-18 0:25:2.042, -0.003, 0.004, 1.000, 0.000, 0.000, 0.000, 0.000, 0.000, -0.033, -45.000, 228.000, -401.000, 29.72,
 00:25:02.307,COM9, 2025-8-18 0:25:2.044, -0.003, 0.004, 1.000, 0.000, 0.000, 0.000, 0.000, 0.000, -0.033, -45.000, 228.000, -401.000, 29.72,
 00:25:02.310,COM9, 2025-8-18 0:25:2.046, -0.003, 0.004, 1.000, 0.000, 0.000, 0.000, 0.000, 0.000, -0.038, -45.000, 228.000, -401.000, 29.72,
 00:25:02.312,COM9, 2025-8-18 0:25:2.048, -0.002, 0.004, 1.000, 0.000, 0.000, 0.000, 0.000, 0.000, -0.038, -44.000, 231.000, -400.000, 29.72,
 00:25:02.313,COM9, 2025-8-18 0:25:2.050, -0.002, 0.004, 1.000, 0.000, 0.000, 0.000, 0.000, 0.000, -0.038, -44.000, 231.000, -400.000, 29.70,
 00:25:02.314,COM9, 2025-8-18 0:25:2.052, -0.002, 0.004, 1.000, 0.000, 0.000, 0.000, 0.000, 0.000, -0.038, -44.000, 231.000, -400.000, 29.70,
 00:25:02.317,COM9, 2025-8-18 0:25:2.054, -0.002, 0.004, 1.000, 0.000, 0.000, 0.000, 0.000, 0.000, -0.038, -44.000, 231.000, -400.000, 29.70,
 00:25:02.319,COM9, 2025-8-18 0:25:2.056, -0.002, 0.004, 1.000, 0.000, 0.000, 0.000, 0.000, 0.000, -0.038, -44.000, 231.000, -400.000, 29.70,
 00:25:02.320,COM9, 2025-8-18 0:25:2.058, -0.002, 0.004, 1.000, 0.000, 0.000, 0.000, 0.000, 0.000, -0.038, -44.000, 227.000, -402.000, 29.70,
 00:25:02.323,COM9, 2025-8-18 0:25:2.060, -0.002, 0.004, 1.000, 0.000, 0.000, 0.000, 0.000, 0.000, -0.038, -44.000, 227.000, -402.000, 29.70,
 00:25:02.325,COM9, 2025-8-18 0:25:2.062, -0.002, 0.004, 1.000, 0.000, 0.000, 0.000, 0.000, 0.000, -0.044, -44.000, 227.000, -402.000, 29.70,
 00:25:02.326,COM9, 2025-8-18 0:25:2.064, -0.002, 0.004, 1.000, 0.000, 0.000, 0.000, 0.000, 0.000, -0.044, -44.000, 227.000, -402.000, 29.70,
 00:25:02.329,COM9, 2025-8-18 0:25:2.066, -0.002, 0.004, 1.000, 0.000, 0.000, 0.000, 0.000, 0.000, -0.044, -44.000, 227.000, -402.000, 29.70,
 00:25:02.331,COM9, 2025-8-18 0:25:2.068, -0.002, 0.004, 1.000, 0.000, 0.000, 0.000, 0.000, 0.000, -0.044, -44.000, 230.000, -398.000, 29.70,
 00:25:02.332,COM9, 2025-8-18 0:25:2.070, -0.002, 0.003, 1.000, 0.000, 0.000, 0.000, 0.000, 0.000, -0.044, -44.000, 230.000, -398.000, 29.73,
 00:25:02.335,COM9, 2025-8-18 0:25:2.072, -0.002, 0.003, 1.000, 0.000, 0.000, 0.000, 0.000, 0.000, -0.044, -44.000, 230.000, -398.000, 29.73,
 00:25:02.337,COM9, 2025-8-18 0:25:2.074, -0.002, 0.003, 1.000, 0.000, 0.000, 0.000, 0.000, 0.000, -0.044, -44.000, 230.000, -398.000, 29.73,
 00:25:02.340,COM9, 2025-8-18 0:25:2.076, -0.002, 0.003, 1.000, 0.000, 0.000, 0.000, 0.000, 0.000, -0.044, -44.000, 230.000, -398.000, 29.73,
 00:25:02.341,COM9, 2025-8-18 0:25:2.078, -0.002, 0.003, 1.000, 0.000, 0.000, 0.000, 0.000, 0.000, -0.049, -45.000, 230.000, -401.000, 29.73,
 00:25:02.343,COM9, 2025-8-18 0:25:2.080, -0.002, 0.003, 1.000, 0.000, 0.000, 0.000, 0.000, 0.000, -0.049, -45.000, 230.000, -401.000, 29.73,
 00:25:02.344,COM9, 2025-8-18 0:25:2.082, -0.002, 0.003, 1.000, 0.000, 0.000, 0.000, 0.000, 0.000, -0.049, -45.000, 230.000, -401.000, 29.73,
 00:25:02.347,COM9, 2025-8-18 0:25:2.084, -0.002, 0.003, 1.000, 0.000, 0.000, 0.000, 0.000, 0.000, -0.055, -45.000, 230.000, -401.000, 29.73,
 00:25:02.349,COM9, 2025-8-18 0:25:2.086, -0.002, 0.003, 1.000, 0.000, 0.000, 0.000, 0.000, 0.000, -0.055, -45.000, 230.000, -401.000, 29.73,
 00:25:02.350,COM9, 2025-8-18 0:25:2.088, -0.002, 0.003, 1.000, 0.000, 0.000, 0.000, 0.000, 0.000, -0.055, -43.000, 234.000, -401.000, 29.73,
 00:25:02.353,COM9, 2025-8-18 0:25:2.090, -0.002, 0.003, 1.000, 0.000, 0.000, 0.000, 0.000, 0.000, -0.049, -43.000, 234.000, -401.000, 29.71,
 00:25:02.355,COM9, 2025-8-18 0:25:2.092, -0.002, 0.003, 1.000, 0.000, 0.000, 0.000, 0.000, 0.000, -0.049, -43.000, 234.000, -401.000, 29.71,
 00:25:02.356,COM9, 2025-8-18 0:25:2.094, -0.002, 0.003, 1.000, 0.000, 0.000, 0.000, 0.000, 0.000, -0.049, -43.000, 234.000, -401.000, 29.71,
 00:25:02.359,COM9, 2025-8-18 0:25:2.096, -0.002, 0.003, 1.000, 0.000, 0.000, 0.000, 0.000, 0.000, -0.044, -43.000, 234.000, -401.000, 29.71,
 00:25:02.361,COM9, 2025-8-18 0:25:2.098, -0.002, 0.003, 1.000, 0.000, 0.000, 0.000, 0.000, 0.000, -0.044, -44.000, 231.000, -400.000, 29.71,
 00:25:02.362,COM9, 2025-8-18 0:25:2.100, -0.002, 0.003, 1.000, 0.000, 0.000, 0.000, 0.000, 0.000, -0.044, -44.000, 231.000, -400.000, 29.71,
 00:25:02.365,COM9, 2025-8-18 0:25:2.102, -0.002, 0.003, 1.000, 0.000, 0.000, 0.000, 0.000, 0.000, -0.044, -44.000, 231.000, -400.000, 29.71,
 00:25:02.367,COM9, 2025-8-18 0:25:2.104, -0.002, 0.003, 1.000, 0.000, 0.000, 0.000, 0.000, 0.000, -0.044, -44.000, 231.000, -400.000, 29.71,
 00:25:02.370,COM9, 2025-8-18 0:25:2.106, -0.002, 0.003, 1.000, 0.000, 0.000, 0.000, 0.000, 0.000, -0.044, -44.000, 231.000, -400.000, 29.71,
 00:25:02.371,COM9, 2025-8-18 0:25:2.108, -0.002, 0.003, 1.000, 0.000, 0.000, 0.000, 0.000, 0.000, -0.038, -40.000, 230.000, -403.000, 29.71,
 00:25:02.373,COM9, 2025-8-18 0:25:2.110, -0.002, 0.003, 1.000, 0.000, 0.000, 0.000, 0.000, 0.000, -0.038, -40.000, 230.000, -403.000, 29.71,
 00:25:02.374,COM9, 2025-8-18 0:25:2.112, -0.002, 0.003, 1.000, 0.000, 0.000, 0.000, 0.000, 0.000, -0.033, -40.000, 230.000, -403.000, 29.71,
 00:25:02.377,COM9, 2025-8-18 0:25:2.114, -0.002, 0.003, 1.000, 0.000, 0.000, 0.000, 0.000, 0.000, -0.027, -40.000, 230.000, -403.000, 29.71,
 00:25:02.379,COM9, 2025-8-18 0:25:2.116, -0.002, 0.003, 1.000, 0.000, 0.000, 0.000, 0.000, 0.000, -0.022, -40.000, 230.000, -403.000, 29.71,
 00:25:02.380,COM9, 2025-8-18 0:25:2.118, -0.002, 0.003, 1.000, 0.000, 0.000, 0.000, 0.000, 0.000, -0.016, -44.000, 233.000, -402.000, 29.71,
 00:25:02.383,COM9, 2025-8-18 0:25:2.120, -0.002, 0.003, 1.000, 0.000, 0.000, 0.000, 0.000, 0.000, -0.016, -44.000, 233.000, -402.000, 29.71,
 00:25:02.385,COM9, 2025-8-18 0:25:2.122, -0.002, 0.003, 1.000, 0.000, 0.000, 0.000, 0.000, 0.000, -0.016, -44.000, 233.000, -402.000, 29.71,
 00:25:02.386,COM9, 2025-8-18 0:25:2.124, -0.002, 0.003, 1.000, 0.000, 0.000, 0.000, 0.000, 0.000, -0.016, -44.000, 233.000, -402.000, 29.71,
 00:25:02.389,COM9, 2025-8-18 0:25:2.126, -0.002, 0.003, 1.000, 0.000, 0.000, 0.000, 0.000, 0.000, -0.016, -44.000, 233.000, -402.000, 29.71,
 00:25:02.391,COM9, 2025-8-18 0:25:2.128, -0.002, 0.003, 1.000, 0.000, 0.000, 0.000, 0.000, 0.000, -0.016, -46.000, 232.000, -406.000, 29.71,
 00:25:02.392,COM9, 2025-8-18 0:25:2.130, -0.002, 0.003, 1.000, 0.000, 0.000, 0.000, 0.000, 0.000, -0.016, -46.000, 232.000, -406.000, 29.73,
 00:25:02.395,COM9, 2025-8-18 0:25:2.132, -0.002, 0.003, 1.000, 0.000, 0.000, 0.000, 0.000, 0.000, -0.022, -46.000, 232.000, -406.000, 29.73,
 00:25:02.397,COM9, 2025-8-18 0:25:2.134, -0.002, 0.003, 1.000, 0.000, 0.000, 0.000, 0.000, 0.000, -0.022, -46.000, 232.000, -406.000, 29.73,
 00:25:02.400,COM9, 2025-8-18 0:25:2.136, -0.002, 0.003, 1.000, 0.000, 0.000, 0.000, 0.000, 0.000, -0.027, -46.000, 232.000, -406.000, 29.73,
 00:25:02.401,COM9, 2025-8-18 0:25:2.138, -0.002, 0.003, 1.000, 0.000, 0.000, 0.000, 0.000, 0.000, -0.027, -43.000, 232.000, -403.000, 29.73,
 00:25:02.403,COM9, 2025-8-18 0:25:2.140, -0.002, 0.003, 1.000, 0.000, 0.000, 0.000, 0.000, 0.000, -0.027, -43.000, 232.000, -403.000, 29.73,
 00:25:02.406,COM9, 2025-8-18 0:25:2.142, -0.002, 0.003, 1.000, 0.000, 0.000, 0.000, 0.000, 0.000, -0.022, -43.000, 232.000, -403.000, 29.73,
 00:25:02.407,COM9, 2025-8-18 0:25:2.144, -0.002, 0.003, 1.000, 0.000, 0.000, 0.000, 0.000, 0.000, -0.022, -43.000, 232.000, -403.000, 29.73,
 00:25:02.409,COM9, 2025-8-18 0:25:2.146, -0.002, 0.003, 1.000, 0.000, 0.000, 0.000, 0.000, 0.000, -0.022, -43.000, 232.000, -403.000, 29.73,
 00:25:02.412,COM9, 2025-8-18 0:25:2.148, -0.002, 0.003, 1.000, 0.000, 0.000, 0.000, 0.000, 0.000, -0.022, -43.000, 232.000, -401.000, 29.73,
 00:25:02.413,COM9, 2025-8-18 0:25:2.150, -0.002, 0.004, 1.000, 0.000, 0.000, 0.000, 0.000, 0.000, -0.016, -43.000, 232.000, -401.000, 29.75,
 00:25:02.415,COM9, 2025-8-18 0:25:2.152, -0.002, 0.004, 1.000, 0.000, 0.000, 0.000, 0.000, 0.000, -0.016, -43.000, 232.000, -401.000, 29.75,
 00:25:02.418,COM9, 2025-8-18 0:25:2.154, -0.002, 0.004, 1.000, 0.000, 0.000, 0.000, 0.000, 0.000, -0.016, -43.000, 232.000, -401.000, 29.75,
 00:25:02.419,COM9, 2025-8-18 0:25:2.156, -0.002, 0.004, 1.000, 0.000, 0.000, 0.000, 0.000, -0.005, -0.011, -43.000, 232.000, -401.000, 29.75,
 00:25:02.421,COM9, 2025-8-18 0:25:2.158, -0.002, 0.004, 1.000, 0.000, 0.000, 0.000, 0.000, -0.005, -0.011, -45.000, 228.000, -403.000, 29.75,
 00:25:02.424,COM9, 2025-8-18 0:25:2.160, -0.002, 0.004, 1.000, 0.000, 0.000, 0.000, 0.000, -0.005, -0.016, -45.000, 228.000, -403.000, 29.75,
 00:25:02.425,COM9, 2025-8-18 0:25:2.162, -0.002, 0.004, 1.000, 0.000, 0.000, 0.000, 0.000, -0.005, -0.016, -45.000, 228.000, -403.000, 29.75,
 00:25:02.427,COM9, 2025-8-18 0:25:2.164, -0.002, 0.004, 1.000, 0.000, 0.000, 0.000, 0.000, -0.005, -0.022, -45.000, 228.000, -403.000, 29.75,
 00:25:02.430,COM9, 2025-8-18 0:25:2.166, -0.002, 0.004, 1.000, 0.000, 0.000, 0.000, 0.000, -0.005, -0.022, -45.000, 228.000, -403.000, 29.75,
 00:25:02.431,COM9, 2025-8-18 0:25:2.168, -0.002, 0.004, 1.000, 0.000, 0.000, 0.000, 0.000, -0.005, -0.022, -45.000, 232.000, -403.000, 29.75,
 00:25:02.433,COM9, 2025-8-18 0:25:2.170, -0.002, 0.004, 1.000, 0.000, 0.000, 0.000, 0.000, -0.005, -0.027, -45.000, 232.000, -403.000, 29.72,
 00:25:02.436,COM9, 2025-8-18 0:25:2.172, -0.002, 0.004, 1.000, 0.000, 0.000, 0.000, 0.000, -0.005, -0.027, -45.000, 232.000, -403.000, 29.72,
 00:25:02.437,COM9, 2025-8-18 0:25:2.174, -0.002, 0.004, 1.000, 0.000, 0.000, 0.000, 0.000, -0.005, -0.027, -45.000, 232.000, -403.000, 29.72,
 00:25:02.439,COM9, 2025-8-18 0:25:2.176, -0.002, 0.004, 1.000, 0.000, 0.000, 0.000, 0.000, -0.005, -0.027, -45.000, 232.000, -403.000, 29.72,
 00:25:02.442,COM9, 2025-8-18 0:25:2.178, -0.002, 0.004, 1.000, 0.000, 0.000, 0.000, 0.000, -0.005, -0.027, -44.000, 231.000, -402.000, 29.72,
 00:25:02.443,COM9, 2025-8-18 0:25:2.180, -0.002, 0.004, 1.000, 0.000, 0.000, 0.000, 0.000, -0.005, -0.027, -44.000, 231.000, -402.000, 29.72,
 00:25:02.445,COM9, 2025-8-18 0:25:2.182, -0.002, 0.004, 1.000, 0.000, 0.000, 0.000, 0.000, -0.005, -0.027, -44.000, 231.000, -402.000, 29.72,
 00:25:02.448,COM9, 2025-8-18 0:25:2.184, -0.002, 0.004, 1.000, 0.000, 0.000, 0.000, 0.000, -0.005, -0.027, -44.000, 231.000, -402.000, 29.72,
 00:25:02.449,COM9, 2025-8-18 0:25:2.186, -0.002, 0.004, 1.000, 0.000, 0.000, 0.000, 0.000, -0.005, -0.027, -44.000, 231.000, -402.000, 29.72,
 00:25:02.453,COM9, 2025-8-18 0:25:2.188, -0.002, 0.003, 1.001, 0.000, 0.000, 0.000, 0.000, -0.005, -0.033, -45.000, 229.000, -400.000, 29.70,
 00:25:02.453,COM9, 2025-8-18 0:25:2.190, -0.002, 0.003, 1.001, 0.000, 0.000, 0.000, 0.000, -0.005, -0.033, -45.000, 229.000, -400.000, 29.70,
 00:25:02.455,COM9, 2025-8-18 0:25:2.192, -0.002, 0.003, 1.001, 0.000, 0.000, 0.000, 0.000, -0.005, -0.033, -45.000, 229.000, -400.000, 29.70,
 00:25:02.458,COM9, 2025-8-18 0:25:2.194, -0.002, 0.003, 1.001, 0.000, 0.000, 0.000, 0.000, -0.005, -0.038, -45.000, 229.000, -400.000, 29.70,
 00:25:02.459,COM9, 2025-8-18 0:25:2.196, -0.002, 0.003, 1.001, 0.000, 0.000, 0.000, 0.000, -0.005, -0.038, -45.000, 229.000, -400.000, 29.70,
 00:25:02.461,COM9, 2025-8-18 0:25:2.198, -0.002, 0.003, 1.001, 0.000, 0.000, 0.000, 0.000, -0.005, -0.038, -45.000, 231.000, -402.000, 29.70,
 00:25:02.464,COM9, 2025-8-18 0:25:2.200, -0.002, 0.003, 1.001, 0.000, 0.000, 0.000, 0.000, -0.005, -0.044, -45.000, 231.000, -402.000, 29.70,
 00:25:02.465,COM9, 2025-8-18 0:25:2.202, -0.002, 0.003, 1.001, 0.000, 0.000, 0.000, 0.000, -0.005, -0.044, -45.000, 231.000, -402.000, 29.70,
 00:25:02.467,COM9, 2025-8-18 0:25:2.204, -0.002, 0.003, 1.001, 0.000, 0.000, 0.000, 0.000, -0.005, -0.044, -45.000, 231.000, -402.000, 29.70,
 00:25:02.470,COM9, 2025-8-18 0:25:2.206, -0.002, 0.003, 1.001, 0.000, 0.000, 0.000, 0.000, -0.005, -0.044, -45.000, 231.000, -402.000, 29.70,
 00:25:02.471,COM9, 2025-8-18 0:25:2.208, -0.002, 0.003, 1.000, 0.000, 0.000, 0.000, 0.000, -0.005, -0.044, -43.000, 232.000, -403.000, 29.70,
 00:25:02.473,COM9, 2025-8-18 0:25:2.210, -0.002, 0.003, 1.000, 0.000, 0.000, 0.000, 0.000, -0.005, -0.044, -43.000, 232.000, -403.000, 29.70,
 00:25:02.476,COM9, 2025-8-18 0:25:2.212, -0.002, 0.003, 1.000, 0.000, 0.000, 0.000, 0.000, -0.005, -0.044, -43.000, 232.000, -403.000, 29.70,
 00:25:02.477,COM9, 2025-8-18 0:25:2.214, -0.002, 0.003, 1.000, 0.000, 0.000, 0.000, 0.000, -0.005, -0.044, -43.000, 232.000, -403.000, 29.70,
 00:25:02.480,COM9, 2025-8-18 0:25:2.216, -0.002, 0.003, 1.000, 0.000, 0.000, 0.000, 0.000, -0.005, -0.038, -43.000, 232.000, -403.000, 29.70,
 00:25:02.482,COM9, 2025-8-18 0:25:2.218, -0.002, 0.003, 1.000, 0.000, 0.000, 0.000, 0.000, -0.005, -0.038, -43.000, 231.000, -402.000, 29.70,
 00:25:02.483,COM9, 2025-8-18 0:25:2.220, -0.002, 0.003, 1.000, 0.000, 0.000, 0.000, 0.000, -0.005, -0.038, -43.000, 231.000, -402.000, 29.70,
 00:25:02.485,COM9, 2025-8-18 0:25:2.222, -0.002, 0.003, 1.000, 0.000, 0.000, 0.000, 0.000, -0.005, -0.038, -43.000, 231.000, -402.000, 29.70,
 00:25:02.488,COM9, 2025-8-18 0:25:2.224, -0.002, 0.003, 1.000, 0.000, 0.000, 0.000, 0.000, -0.005, -0.033, -43.000, 231.000, -402.000, 29.70,
 00:25:02.489,COM9, 2025-8-18 0:25:2.226, -0.003, 0.003, 1.000, 0.000, 0.000, 0.000, 0.000, -0.005, -0.033, -43.000, 231.000, -402.000, 29.70,
 00:25:02.491,COM9, 2025-8-18 0:25:2.228, -0.003, 0.003, 1.000, 0.000, 0.000, 0.000, 0.000, -0.005, -0.033, -43.000, 231.000, -402.000, 29.72,
 00:25:02.493,COM9, 2025-8-18 0:25:2.230, -0.003, 0.003, 1.000, 0.000, 0.000, 0.000, 0.000, -0.005, -0.033, -43.000, 231.000, -402.000, 29.72,
 00:25:02.495,COM9, 2025-8-18 0:25:2.232, -0.003, 0.003, 1.000, 0.000, 0.000, 0.000, 0.000, -0.005, -0.027, -43.000, 231.000, -402.000, 29.72,
 00:25:02.497,COM9, 2025-8-18 0:25:2.234, -0.003, 0.003, 1.000, 0.000, 0.000, 0.000, 0.000, -0.005, -0.027, -43.000, 231.000, -402.000, 29.72,
 00:25:02.499,COM9, 2025-8-18 0:25:2.236, -0.003, 0.003, 1.000, 0.000, 0.000, 0.000, 0.000, -0.005, -0.027, -43.000, 231.000, -402.000, 29.72,
 00:25:02.501,COM9, 2025-8-18 0:25:2.238, -0.003, 0.003, 1.000, 0.000, 0.000, 0.000, 0.000, -0.005, -0.027, -44.000, 233.000, -397.000, 29.72,
 00:25:02.504,COM9, 2025-8-18 0:25:2.240, -0.003, 0.003, 1.000, 0.000, 0.000, 0.000, 0.000, -0.005, -0.027, -44.000, 233.000, -397.000, 29.72,
 00:25:02.505,COM9, 2025-8-18 0:25:2.242, -0.003, 0.003, 1.000, 0.000, 0.000, 0.000, 0.000, -0.005, -0.027, -44.000, 233.000, -397.000, 29.72,
 00:25:02.507,COM9, 2025-8-18 0:25:2.244, -0.003, 0.003, 1.000, 0.000, 0.000, 0.000, 0.000, -0.005, -0.027, -44.000, 233.000, -397.000, 29.72,
 00:25:02.510,COM9, 2025-8-18 0:25:2.246, -0.002, 0.003, 1.000, 0.000, 0.000, 0.000, 0.000, -0.005, -0.027, -44.000, 233.000, -397.000, 29.72,
 00:25:02.512,COM9, 2025-8-18 0:25:2.248, -0.002, 0.004, 1.000, 0.000, 0.000, 0.000, 0.000, -0.005, -0.027, -43.000, 233.000, -405.000, 29.72,
 00:25:02.513,COM9, 2025-8-18 0:25:2.250, -0.002, 0.004, 1.000, 0.000, 0.000, 0.000, 0.000, -0.005, -0.022, -43.000, 233.000, -405.000, 29.72,
 00:25:02.515,COM9, 2025-8-18 0:25:2.252, -0.002, 0.004, 1.000, 0.000, 0.000, 0.000, 0.000, -0.005, -0.022, -43.000, 233.000, -405.000, 29.72,
 00:25:02.518,COM9, 2025-8-18 0:25:2.254, -0.002, 0.004, 1.000, 0.000, 0.000, 0.000, 0.000, -0.005, -0.022, -43.000, 233.000, -405.000, 29.72,
 00:25:02.519,COM9, 2025-8-18 0:25:2.256, -0.002, 0.004, 1.000, 0.000, 0.000, 0.000, 0.000, -0.005, -0.022, -43.000, 233.000, -405.000, 29.72,
 00:25:02.521,COM9, 2025-8-18 0:25:2.258, -0.002, 0.004, 1.000, 0.000, 0.000, 0.000, 0.000, -0.005, -0.022, -46.000, 230.000, -401.000, 29.72,
 00:25:02.524,COM9, 2025-8-18 0:25:2.260, -0.002, 0.004, 1.000, 0.000, 0.000, 0.000, 0.000, -0.005, -0.022, -46.000, 230.000, -401.000, 29.72,
 00:25:02.525,COM9, 2025-8-18 0:25:2.262, -0.002, 0.004, 1.000, 0.000, 0.000, 0.000, 0.000, 0.000, -0.027, -46.000, 230.000, -401.000, 29.72,
 00:25:02.527,COM9, 2025-8-18 0:25:2.264, -0.002, 0.004, 1.000, 0.000, 0.000, 0.000, 0.000, 0.000, -0.033, -46.000, 230.000, -401.000, 29.72,
 00:25:02.530,COM9, 2025-8-18 0:25:2.266, -0.002, 0.004, 1.000, 0.000, 0.000, 0.000, 0.000, 0.000, -0.033, -46.000, 230.000, -401.000, 29.72,
 00:25:02.531,COM9, 2025-8-18 0:25:2.268, -0.002, 0.003, 1.000, 0.000, 0.000, 0.000, 0.000, 0.000, -0.038, -46.000, 232.000, -401.000, 29.73,
 00:25:02.533,COM9, 2025-8-18 0:25:2.270, -0.002, 0.003, 1.000, 0.000, 0.000, 0.000, 0.000, 0.000, -0.038, -46.000, 232.000, -401.000, 29.73,
 00:25:02.536,COM9, 2025-8-18 0:25:2.272, -0.002, 0.003, 1.000, 0.000, 0.000, 0.000, 0.000, 0.000, -0.044, -46.000, 232.000, -401.000, 29.73,
 00:25:02.537,COM9, 2025-8-18 0:25:2.274, -0.002, 0.003, 1.000, 0.000, 0.000, 0.000, 0.000, 0.000, -0.044, -46.000, 232.000, -401.000, 29.73,
 00:25:02.539,COM9, 2025-8-18 0:25:2.276, -0.002, 0.003, 1.000, 0.000, 0.000, 0.000, 0.000, 0.000, -0.049, -46.000, 232.000, -401.000, 29.73,
 00:25:02.542,COM9, 2025-8-18 0:25:2.278, -0.002, 0.003, 1.000, 0.000, 0.000, 0.000, 0.000, 0.000, -0.049, -42.000, 232.000, -401.000, 29.73,
 00:25:02.543,COM9, 2025-8-18 0:25:2.280, -0.002, 0.003, 1.000, 0.000, 0.000, 0.000, 0.000, 0.000, -0.044, -42.000, 232.000, -401.000, 29.73,
 00:25:02.545,COM9, 2025-8-18 0:25:2.282, -0.002, 0.003, 1.000, 0.000, 0.000, 0.000, 0.000, 0.000, -0.044, -42.000, 232.000, -401.000, 29.73,
 00:25:02.548,COM9, 2025-8-18 0:25:2.284, -0.002, 0.003, 1.000, 0.000, 0.000, 0.000, 0.000, 0.000, -0.038, -42.000, 232.000, -401.000, 29.73,
 00:25:02.549,COM9, 2025-8-18 0:25:2.286, -0.002, 0.003, 1.000, 0.000, 0.000, 0.000, 0.000, 0.000, -0.038, -42.000, 232.000, -401.000, 29.73,
 00:25:02.551,COM9, 2025-8-18 0:25:2.288, -0.002, 0.004, 1.000, 0.000, 0.000, 0.000, 0.000, 0.000, -0.033, -43.000, 231.000, -402.000, 29.74,
 00:25:02.554,COM9, 2025-8-18 0:25:2.290, -0.002, 0.004, 1.000, 0.000, 0.000, 0.000, 0.000, 0.000, -0.033, -43.000, 231.000, -402.000, 29.74,
 00:25:02.555,COM9, 2025-8-18 0:25:2.292, -0.002, 0.004, 1.000, 0.000, 0.000, 0.000, 0.000, 0.000, -0.033, -43.000, 231.000, -402.000, 29.74,
 00:25:02.557,COM9, 2025-8-18 0:25:2.294, -0.002, 0.004, 1.000, 0.000, 0.000, 0.000, 0.000, 0.000, -0.027, -43.000, 231.000, -402.000, 29.74,
 00:25:02.560,COM9, 2025-8-18 0:25:2.296, -0.002, 0.004, 1.000, 0.000, 0.000, 0.000, 0.000, 0.000, -0.027, -43.000, 231.000, -402.000, 29.74,
 00:25:02.561,COM9, 2025-8-18 0:25:2.298, -0.002, 0.004, 1.000, 0.000, 0.000, 0.000, 0.000, 0.000, -0.027, -44.000, 230.000, -401.000, 29.74,
 00:25:02.563,COM9, 2025-8-18 0:25:2.300, -0.002, 0.004, 1.000, 0.000, 0.000, 0.000, 0.000, 0.000, -0.027, -44.000, 230.000, -401.000, 29.74,
 00:25:02.566,COM9, 2025-8-18 0:25:2.302, -0.002, 0.004, 1.000, 0.000, 0.000, 0.000, 0.000, 0.000, -0.027, -44.000, 230.000, -401.000, 29.74,
 00:25:02.567,COM9, 2025-8-18 0:25:2.304, -0.002, 0.004, 1.000, 0.000, 0.000, 0.000, 0.000, 0.000, -0.027, -44.000, 230.000, -401.000, 29.74,
 00:25:02.569,COM9, 2025-8-18 0:25:2.306, -0.002, 0.004, 1.000, 0.000, 0.000, 0.000, 0.000, 0.000, -0.027, -44.000, 230.000, -401.000, 29.74,
 00:25:02.572,COM9, 2025-8-18 0:25:2.308, -0.002, 0.003, 1.000, 0.000, 0.000, 0.000, 0.000, 0.000, -0.027, -44.000, 230.000, -401.000, 29.73,
 00:25:02.573,COM9, 2025-8-18 0:25:2.310, -0.002, 0.003, 1.000, 0.000, 0.000, 0.000, 0.000, -0.005, -0.027, -44.000, 230.000, -401.000, 29.73,
 00:25:02.575,COM9, 2025-8-18 0:25:2.312, -0.002, 0.003, 1.000, 0.000, 0.000, 0.000, 0.000, -0.005, -0.033, -44.000, 230.000, -401.000, 29.73,
 00:25:02.578,COM9, 2025-8-18 0:25:2.314, -0.002, 0.003, 1.000, 0.000, 0.000, 0.000, 0.000, -0.005, -0.033, -44.000, 230.000, -401.000, 29.73,
 00:25:02.579,COM9, 2025-8-18 0:25:2.316, -0.002, 0.003, 1.000, 0.000, 0.000, 0.000, 0.000, -0.005, -0.033, -44.000, 230.000, -401.000, 29.73,
 00:25:02.581,COM9, 2025-8-18 0:25:2.318, -0.002, 0.003, 1.000, 0.000, 0.000, 0.000, 0.000, -0.005, -0.033, -45.000, 230.000, -401.000, 29.73,
 00:25:02.584,COM9, 2025-8-18 0:25:2.320, -0.002, 0.003, 1.000, 0.000, 0.000, 0.000, 0.000, -0.005, -0.033, -45.000, 230.000, -401.000, 29.73,
 00:25:02.585,COM9, 2025-8-18 0:25:2.322, -0.002, 0.003, 1.000, 0.000, 0.000, 0.000, 0.000, -0.005, -0.038, -45.000, 230.000, -401.000, 29.73,
 00:25:02.587,COM9, 2025-8-18 0:25:2.324, -0.002, 0.003, 1.000, 0.000, 0.000, 0.000, 0.000, -0.005, -0.038, -45.000, 230.000, -401.000, 29.73,
 00:25:02.590,COM9, 2025-8-18 0:25:2.326, -0.001, 0.003, 1.000, 0.000, 0.000, 0.000, 0.000, -0.005, -0.038, -45.000, 230.000, -401.000, 29.73,
 00:25:02.591,COM9, 2025-8-18 0:25:2.328, -0.001, 0.003, 1.000, 0.000, 0.000, 0.000, 0.000, -0.005, -0.038, -42.000, 230.000, -406.000, 29.73,
 00:25:02.593,COM9, 2025-8-18 0:25:2.330, -0.001, 0.003, 1.000, 0.000, 0.000, 0.000, 0.000, -0.005, -0.038, -42.000, 230.000, -406.000, 29.73,
 00:25:02.596,COM9, 2025-8-18 0:25:2.332, -0.001, 0.003, 1.000, 0.000, 0.000, 0.000, 0.000, -0.005, -0.033, -42.000, 230.000, -406.000, 29.73,
 00:25:02.597,COM9, 2025-8-18 0:25:2.334, -0.001, 0.003, 1.000, 0.000, 0.000, 0.000, 0.000, -0.005, -0.033, -42.000, 230.000, -406.000, 29.73,
 00:25:02.600,COM9, 2025-8-18 0:25:2.336, -0.001, 0.003, 1.000, 0.000, 0.000, 0.000, 0.000, -0.005, -0.027, -42.000, 230.000, -406.000, 29.73,
 00:25:02.602,COM9, 2025-8-18 0:25:2.338, -0.001, 0.003, 1.000, 0.000, 0.000, 0.000, 0.000, -0.005, -0.027, -43.000, 232.000, -406.000, 29.73,
 00:25:02.603,COM9, 2025-8-18 0:25:2.340, -0.001, 0.003, 1.000, 0.000, 0.000, 0.000, 0.000, -0.005, -0.027, -43.000, 232.000, -406.000, 29.73,
 00:25:02.605,COM9, 2025-8-18 0:25:2.342, -0.001, 0.003, 1.000, 0.000, 0.000, 0.000, 0.000, -0.005, -0.022, -43.000, 232.000, -406.000, 29.73,
 00:25:02.608,COM9, 2025-8-18 0:25:2.344, -0.001, 0.003, 1.000, 0.000, 0.000, 0.000, 0.000, -0.005, -0.022, -43.000, 232.000, -406.000, 29.73,
 00:25:02.609,COM9, 2025-8-18 0:25:2.346, -0.002, 0.003, 1.000, 0.000, 0.000, 0.000, 0.000, -0.005, -0.022, -43.000, 232.000, -406.000, 29.73,
 00:25:02.611,COM9, 2025-8-18 0:25:2.348, -0.002, 0.004, 1.000, 0.000, 0.000, 0.000, 0.000, -0.005, -0.022, -43.000, 228.000, -401.000, 29.72,
 00:25:02.614,COM9, 2025-8-18 0:25:2.350, -0.002, 0.004, 1.000, 0.000, 0.000, 0.000, 0.000, -0.005, -0.016, -43.000, 228.000, -401.000, 29.72,
 00:25:02.615,COM9, 2025-8-18 0:25:2.352, -0.002, 0.004, 1.000, 0.000, 0.000, 0.000, 0.000, -0.005, -0.016, -43.000, 228.000, -401.000, 29.72,
 00:25:02.617,COM9, 2025-8-18 0:25:2.354, -0.002, 0.004, 1.000, 0.000, 0.000, 0.000, 0.000, -0.005, -0.016, -43.000, 228.000, -401.000, 29.72,
 00:25:02.620,COM9, 2025-8-18 0:25:2.356, -0.002, 0.004, 1.000, 0.000, 0.000, 0.000, 0.000, -0.005, -0.016, -43.000, 228.000, -401.000, 29.72,
 00:25:02.621,COM9, 2025-8-18 0:25:2.358, -0.002, 0.004, 1.000, 0.000, 0.000, 0.000, 0.000, -0.005, -0.016, -44.000, 231.000, -400.000, 29.72,
 00:25:02.623,COM9, 2025-8-18 0:25:2.360, -0.002, 0.004, 1.000, 0.000, 0.000, 0.000, 0.000, -0.005, -0.016, -44.000, 231.000, -400.000, 29.72,
 00:25:02.626,COM9, 2025-8-18 0:25:2.362, -0.002, 0.004, 1.000, 0.000, 0.000, 0.000, 0.000, -0.005, -0.016, -44.000, 231.000, -400.000, 29.72,
 00:25:02.627,COM9, 2025-8-18 0:25:2.364, -0.002, 0.004, 1.000, 0.000, 0.000, 0.000, 0.000, -0.005, -0.016, -44.000, 231.000, -400.000, 29.72,
 00:25:02.630,COM9, 2025-8-18 0:25:2.366, -0.002, 0.004, 1.000, 0.000, 0.000, 0.000, 0.000, -0.005, -0.016, -44.000, 231.000, -400.000, 29.72,
 00:25:02.632,COM9, 2025-8-18 0:25:2.368, -0.002, 0.003, 1.000, 0.000, 0.000, 0.000, 0.000, -0.005, -0.016, -44.000, 228.000, -401.000, 29.66,
 00:25:02.633,COM9, 2025-8-18 0:25:2.370, -0.002, 0.003, 1.000, 0.000, 0.000, 0.000, 0.000, -0.005, -0.022, -44.000, 228.000, -401.000, 29.66,
 00:25:02.635,COM9, 2025-8-18 0:25:2.372, -0.002, 0.003, 1.000, 0.000, 0.000, 0.000, 0.000, -0.005, -0.022, -44.000, 228.000, -401.000, 29.66,
 00:25:02.638,COM9, 2025-8-18 0:25:2.374, -0.002, 0.003, 1.000, 0.000, 0.000, 0.000, 0.000, -0.005, -0.022, -44.000, 228.000, -401.000, 29.66,
 00:25:02.639,COM9, 2025-8-18 0:25:2.376, -0.002, 0.003, 1.000, 0.000, 0.000, 0.000, 0.000, -0.005, -0.022, -44.000, 228.000, -401.000, 29.66,
 00:25:02.641,COM9, 2025-8-18 0:25:2.378, -0.002, 0.003, 1.000, 0.000, 0.000, 0.000, 0.000, -0.005, -0.022, -42.000, 231.000, -400.000, 29.66,
 00:25:02.644,COM9, 2025-8-18 0:25:2.380, -0.002, 0.003, 1.000, 0.000, 0.000, 0.000, 0.000, -0.005, -0.016, -42.000, 231.000, -400.000, 29.66,
 00:25:02.645,COM9, 2025-8-18 0:25:2.382, -0.002, 0.003, 1.000, 0.000, 0.000, 0.000, 0.000, -0.005, -0.016, -42.000, 231.000, -400.000, 29.66,
 00:25:02.647,COM9, 2025-8-18 0:25:2.384, -0.002, 0.003, 1.000, 0.000, 0.000, 0.000, 0.000, -0.005, -0.016, -42.000, 231.000, -400.000, 29.66,
 00:25:02.650,COM9, 2025-8-18 0:25:2.386, -0.002, 0.003, 1.000, 0.000, 0.000, 0.000, 0.000, -0.005, -0.011, -42.000, 231.000, -400.000, 29.66,
 00:25:02.651,COM9, 2025-8-18 0:25:2.388, -0.002, 0.004, 1.001, 0.000, 0.000, 0.000, 0.000, -0.005, -0.011, -46.000, 229.000, -400.000, 29.72,
 00:25:02.653,COM9, 2025-8-18 0:25:2.390, -0.002, 0.004, 1.001, 0.000, 0.000, 0.000, 0.000, -0.005, -0.016, -46.000, 229.000, -400.000, 29.72,
 00:25:02.656,COM9, 2025-8-18 0:25:2.392, -0.002, 0.004, 1.001, 0.000, 0.000, 0.000, 0.000, -0.005, -0.022, -46.000, 229.000, -400.000, 29.72,
 00:25:02.657,COM9, 2025-8-18 0:25:2.394, -0.002, 0.004, 1.001, 0.000, 0.000, 0.000, 0.000, -0.005, -0.022, -46.000, 229.000, -400.000, 29.72,
 00:25:02.659,COM9, 2025-8-18 0:25:2.396, -0.002, 0.004, 1.001, 0.000, 0.000, 0.000, 0.000, -0.005, -0.027, -46.000, 229.000, -400.000, 29.72,
 00:25:02.662,COM9, 2025-8-18 0:25:2.398, -0.002, 0.004, 1.001, 0.000, 0.000, 0.000, 0.000, -0.005, -0.027, -42.000, 233.000, -402.000, 29.72,
 00:25:02.663,COM9, 2025-8-18 0:25:2.400, -0.002, 0.004, 1.001, 0.000, 0.000, 0.000, 0.000, -0.005, -0.022, -42.000, 233.000, -402.000, 29.72,
 00:25:02.665,COM9, 2025-8-18 0:25:2.402, -0.002, 0.004, 1.001, 0.000, 0.000, 0.000, 0.000, -0.005, -0.022, -42.000, 233.000, -402.000, 29.72,
 00:25:02.668,COM9, 2025-8-18 0:25:2.404, -0.002, 0.004, 1.001, 0.000, 0.000, 0.000, 0.000, -0.005, -0.016, -42.000, 233.000, -402.000, 29.72,
 00:25:02.669,COM9, 2025-8-18 0:25:2.406, -0.003, 0.004, 1.001, 0.000, 0.000, 0.000, 0.000, -0.005, -0.016, -42.000, 233.000, -402.000, 29.72,
 00:25:02.671,COM9, 2025-8-18 0:25:2.408, -0.003, 0.003, 1.000, 0.000, 0.000, 0.000, 0.000, -0.005, -0.016, -45.000, 230.000, -398.000, 29.74,
 00:25:02.674,COM9, 2025-8-18 0:25:2.410, -0.003, 0.003, 1.000, 0.000, 0.000, 0.000, 0.000, -0.005, -0.016, -45.000, 230.000, -398.000, 29.74,
 00:25:02.675,COM9, 2025-8-18 0:25:2.412, -0.003, 0.003, 1.000, 0.000, 0.000, 0.000, 0.000, -0.005, -0.016, -45.000, 230.000, -398.000, 29.74,
 00:25:02.677,COM9, 2025-8-18 0:25:2.414, -0.003, 0.003, 1.000, 0.000, 0.000, 0.000, 0.000, 0.000, -0.022, -45.000, 230.000, -398.000, 29.74,
 00:25:02.680,COM9, 2025-8-18 0:25:2.416, -0.003, 0.003, 1.000, 0.000, 0.000, 0.000, 0.000, 0.000, -0.022, -45.000, 230.000, -398.000, 29.74,
 00:25:02.681,COM9, 2025-8-18 0:25:2.418, -0.003, 0.003, 1.000, 0.000, 0.000, 0.000, 0.000, 0.000, -0.027, -45.000, 229.000, -407.000, 29.74,
 00:25:02.683,COM9, 2025-8-18 0:25:2.420, -0.003, 0.003, 1.000, 0.000, 0.000, 0.000, 0.000, 0.000, -0.027, -45.000, 229.000, -407.000, 29.74,
 00:25:02.686,COM9, 2025-8-18 0:25:2.422, -0.003, 0.003, 1.000, 0.000, 0.000, 0.000, 0.000, 0.000, -0.027, -45.000, 229.000, -407.000, 29.74,
 00:25:02.687,COM9, 2025-8-18 0:25:2.424, -0.003, 0.003, 1.000, 0.000, 0.000, 0.000, 0.000, 0.000, -0.033, -45.000, 229.000, -407.000, 29.74,
 00:25:02.689,COM9, 2025-8-18 0:25:2.426, -0.002, 0.003, 1.000, 0.000, 0.000, 0.000, 0.000, 0.000, -0.033, -45.000, 229.000, -407.000, 29.74,
 00:25:02.692,COM9, 2025-8-18 0:25:2.428, -0.002, 0.004, 1.000, 0.000, 0.000, 0.000, 0.000, 0.000, -0.038, -44.000, 231.000, -400.000, 29.71,
 00:25:02.695,COM9, 2025-8-18 0:25:2.430, -0.002, 0.004, 1.000, 0.000, 0.000, 0.000, 0.000, 0.000, -0.038, -44.000, 231.000, -400.000, 29.71,
 00:25:02.695,COM9, 2025-8-18 0:25:2.432, -0.002, 0.004, 1.000, 0.000, 0.000, 0.000, 0.000, 0.000, -0.038, -44.000, 231.000, -400.000, 29.71,
 00:25:02.698,COM9, 2025-8-18 0:25:2.434, -0.002, 0.004, 1.000, 0.000, 0.000, 0.000, 0.000, 0.000, -0.038, -44.000, 231.000, -400.000, 29.71,
 00:25:02.699,COM9, 2025-8-18 0:25:2.436, -0.002, 0.004, 1.000, 0.000, 0.000, 0.000, 0.000, 0.000, -0.038, -44.000, 231.000, -400.000, 29.71,
 00:25:02.701,COM9, 2025-8-18 0:25:2.438, -0.002, 0.004, 1.000, 0.000, 0.000, 0.000, 0.000, 0.000, -0.038, -43.000, 230.000, -406.000, 29.71,
 00:25:02.704,COM9, 2025-8-18 0:25:2.440, -0.002, 0.004, 1.000, 0.000, 0.000, 0.000, 0.000, 0.000, -0.038, -43.000, 230.000, -406.000, 29.71,
 00:25:02.705,COM9, 2025-8-18 0:25:2.442, -0.002, 0.004, 1.000, 0.000, 0.000, 0.000, 0.000, 0.000, -0.033, -43.000, 230.000, -406.000, 29.71,
 00:25:02.707,COM9, 2025-8-18 0:25:2.444, -0.002, 0.004, 1.000, 0.000, 0.000, 0.000, 0.000, 0.000, -0.033, -43.000, 230.000, -406.000, 29.71,
 00:25:02.710,COM9, 2025-8-18 0:25:2.446, -0.002, 0.004, 1.000, 0.000, 0.000, 0.000, 0.000, 0.000, -0.033, -43.000, 230.000, -406.000, 29.71,
 00:25:02.712,COM9, 2025-8-18 0:25:2.448, -0.002, 0.004, 1.001, 0.000, 0.000, 0.000, 0.000, 0.000, -0.033, -44.000, 231.000, -402.000, 29.72,
 00:25:02.713,COM9, 2025-8-18 0:25:2.450, -0.002, 0.004, 1.001, 0.000, 0.000, 0.000, 0.000, 0.000, -0.033, -44.000, 231.000, -402.000, 29.72,
 00:25:02.715,COM9, 2025-8-18 0:25:2.452, -0.002, 0.004, 1.001, 0.000, 0.000, 0.000, 0.000, 0.000, -0.033, -44.000, 231.000, -402.000, 29.72,
 00:25:02.718,COM9, 2025-8-18 0:25:2.454, -0.002, 0.004, 1.001, 0.000, 0.000, 0.000, 0.000, 0.000, -0.033, -44.000, 231.000, -402.000, 29.72,
 00:25:02.719,COM9, 2025-8-18 0:25:2.456, -0.002, 0.004, 1.001, 0.000, 0.000, 0.000, 0.000, 0.000, -0.033, -44.000, 231.000, -402.000, 29.72,
 00:25:02.721,COM9, 2025-8-18 0:25:2.458, -0.002, 0.004, 1.001, 0.000, 0.000, 0.000, 0.000, 0.000, -0.033, -45.000, 227.000, -402.000, 29.72,
 00:25:02.724,COM9, 2025-8-18 0:25:2.460, -0.002, 0.004, 1.001, 0.000, 0.000, 0.000, 0.000, 0.000, -0.038, -45.000, 227.000, -402.000, 29.72,
 00:25:02.725,COM9, 2025-8-18 0:25:2.462, -0.002, 0.004, 1.001, 0.000, 0.000, 0.000, 0.000, 0.000, -0.038, -45.000, 227.000, -402.000, 29.72,
 00:25:02.727,COM9, 2025-8-18 0:25:2.464, -0.002, 0.004, 1.001, 0.000, 0.000, 0.000, 0.000, 0.000, -0.044, -45.000, 227.000, -402.000, 29.72,
 00:25:02.730,COM9, 2025-8-18 0:25:2.466, -0.002, 0.004, 1.001, 0.000, 0.000, 0.000, 0.005, 0.000, -0.044, -45.000, 227.000, -402.000, 29.72,
 00:25:02.731,COM9, 2025-8-18 0:25:2.468, -0.002, 0.004, 1.001, 0.000, 0.000, 0.000, 0.005, 0.000, -0.044, -45.000, 230.000, -401.000, 29.71,
 00:25:02.733,COM9, 2025-8-18 0:25:2.470, -0.002, 0.004, 1.001, 0.000, 0.000, 0.000, 0.005, 0.000, -0.049, -45.000, 230.000, -401.000, 29.71,
 00:25:02.735,COM9, 2025-8-18 0:25:2.472, -0.002, 0.004, 1.001, 0.000, 0.000, 0.000, 0.005, 0.000, -0.049, -45.000, 230.000, -401.000, 29.71,
 00:25:02.737,COM9, 2025-8-18 0:25:2.474, -0.002, 0.004, 1.001, 0.000, 0.000, 0.000, 0.005, 0.000, -0.049, -45.000, 230.000, -401.000, 29.71,
 00:25:02.740,COM9, 2025-8-18 0:25:2.476, -0.002, 0.004, 1.001, 0.000, 0.000, 0.000, 0.005, 0.000, -0.055, -45.000, 230.000, -401.000, 29.71,
 00:25:02.741,COM9, 2025-8-18 0:25:2.478, -0.002, 0.004, 1.001, 0.000, 0.000, 0.000, 0.005, 0.000, -0.055, -45.000, 229.000, -402.000, 29.71,
 00:25:02.743,COM9, 2025-8-18 0:25:2.480, -0.002, 0.004, 1.001, 0.000, 0.000, 0.000, 0.005, 0.000, -0.055, -45.000, 229.000, -402.000, 29.71,
 00:25:02.746,COM9, 2025-8-18 0:25:2.482, -0.002, 0.004, 1.001, 0.000, 0.000, 0.000, 0.005, 0.000, -0.060, -45.000, 229.000, -402.000, 29.71,
 00:25:02.747,COM9, 2025-8-18 0:25:2.484, -0.002, 0.004, 1.001, 0.000, 0.000, 0.000, 0.005, 0.000, -0.060, -45.000, 229.000, -402.000, 29.71,
 00:25:02.749,COM9, 2025-8-18 0:25:2.486, -0.002, 0.004, 1.001, 0.000, 0.000, 0.000, 0.005, 0.000, -0.060, -45.000, 229.000, -402.000, 29.71,
 00:25:02.752,COM9, 2025-8-18 0:25:2.488, -0.002, 0.004, 1.000, 0.000, 0.000, 0.000, 0.005, 0.000, -0.060, -44.000, 230.000, -401.000, 29.73,
 00:25:02.753,COM9, 2025-8-18 0:25:2.490, -0.002, 0.004, 1.000, 0.000, 0.000, 0.000, 0.005, 0.000, -0.060, -44.000, 230.000, -401.000, 29.73,
 00:25:02.755,COM9, 2025-8-18 0:25:2.492, -0.002, 0.004, 1.000, 0.000, 0.000, 0.000, 0.005, 0.000, -0.060, -44.000, 230.000, -401.000, 29.73,
 00:25:02.758,COM9, 2025-8-18 0:25:2.494, -0.002, 0.004, 1.000, 0.000, 0.000, 0.000, 0.005, 0.000, -0.060, -44.000, 230.000, -401.000, 29.73,
 00:25:02.759,COM9, 2025-8-18 0:25:2.496, -0.002, 0.004, 1.000, 0.000, 0.000, 0.000, 0.005, 0.000, -0.060, -44.000, 230.000, -401.000, 29.73,
 00:25:02.761,COM9, 2025-8-18 0:25:2.498, -0.002, 0.004, 1.000, 0.000, 0.000, 0.000, 0.005, 0.000, -0.060, -42.000, 231.000, -402.000, 29.73,
 00:25:02.764,COM9, 2025-8-18 0:25:2.500, -0.002, 0.004, 1.000, 0.000, 0.000, 0.000, 0.005, 0.000, -0.060, -42.000, 231.000, -402.000, 29.73,
 00:25:02.765,COM9, 2025-8-18 0:25:2.502, -0.002, 0.004, 1.000, 0.000, 0.000, 0.000, 0.005, -0.005, -0.055, -42.000, 231.000, -402.000, 29.73,
 00:25:02.767,COM9, 2025-8-18 0:25:2.504, -0.002, 0.004, 1.000, 0.000, 0.000, 0.000, 0.005, -0.005, -0.049, -42.000, 231.000, -402.000, 29.73,
 00:25:02.770,COM9, 2025-8-18 0:25:2.506, -0.002, 0.004, 1.000, 0.000, 0.000, 0.000, 0.005, -0.005, -0.049, -42.000, 231.000, -402.000, 29.73,
 00:25:02.771,COM9, 2025-8-18 0:25:2.508, -0.002, 0.003, 1.000, 0.000, 0.000, 0.000, 0.005, -0.005, -0.044, -43.000, 233.000, -402.000, 29.73,
 00:25:02.773,COM9, 2025-8-18 0:25:2.510, -0.002, 0.003, 1.000, 0.000, 0.000, 0.000, 0.005, -0.005, -0.044, -43.000, 233.000, -402.000, 29.73,
 00:25:02.776,COM9, 2025-8-18 0:25:2.512, -0.002, 0.003, 1.000, 0.000, 0.000, 0.000, 0.005, -0.005, -0.044, -43.000, 233.000, -402.000, 29.73,
 00:25:02.777,COM9, 2025-8-18 0:25:2.514, -0.002, 0.003, 1.000, 0.000, 0.000, 0.000, 0.005, -0.005, -0.038, -43.000, 233.000, -402.000, 29.73,
 00:25:02.780,COM9, 2025-8-18 0:25:2.516, -0.002, 0.003, 1.000, 0.000, 0.000, 0.000, 0.005, -0.005, -0.038, -43.000, 233.000, -402.000, 29.73,
 00:25:02.782,COM9, 2025-8-18 0:25:2.518, -0.002, 0.003, 1.000, 0.000, 0.000, 0.000, 0.005, -0.005, -0.038, -42.000, 231.000, -397.000, 29.73,
 00:25:02.783,COM9, 2025-8-18 0:25:2.520, -0.002, 0.003, 1.000, 0.000, 0.000, 0.000, 0.005, -0.005, -0.033, -42.000, 231.000, -397.000, 29.73,
 00:25:02.785,COM9, 2025-8-18 0:25:2.522, -0.002, 0.003, 1.000, 0.000, 0.000, 0.000, 0.005, -0.005, -0.033, -42.000, 231.000, -397.000, 29.73,
 00:25:02.788,COM9, 2025-8-18 0:25:2.524, -0.002, 0.003, 1.000, 0.000, 0.000, 0.000, 0.005, -0.005, -0.027, -42.000, 231.000, -397.000, 29.73,
 00:25:02.789,COM9, 2025-8-18 0:25:2.526, -0.003, 0.003, 1.000, 0.000, 0.000, 0.000, 0.005, -0.005, -0.027, -42.000, 231.000, -397.000, 29.73,
 00:25:02.791,COM9, 2025-8-18 0:25:2.528, -0.003, 0.002, 1.001, 0.000, 0.000, 0.000, 0.005, -0.005, -0.022, -42.000, 232.000, -403.000, 29.72,
 00:25:02.794,COM9, 2025-8-18 0:25:2.530, -0.003, 0.002, 1.001, 0.000, 0.000, 0.000, 0.005, -0.005, -0.022, -42.000, 232.000, -403.000, 29.72,
 00:25:02.795,COM9, 2025-8-18 0:25:2.532, -0.003, 0.002, 1.001, 0.000, 0.000, 0.000, 0.005, -0.005, -0.016, -42.000, 232.000, -403.000, 29.72,
 00:25:02.796,COM9, 2025-8-18 0:25:2.534, -0.003, 0.002, 1.001, 0.000, 0.000, 0.000, 0.005, 0.000, -0.016, -42.000, 232.000, -403.000, 29.72,
 00:25:02.799,COM9, 2025-8-18 0:25:2.536, -0.003, 0.002, 1.001, 0.000, 0.000, 0.000, 0.005, 0.000, -0.011, -42.000, 232.000, -403.000, 29.72,
 00:25:02.801,COM9, 2025-8-18 0:25:2.538, -0.003, 0.002, 1.001, 0.000, 0.000, 0.000, 0.005, 0.000, -0.011, -44.000, 233.000, -400.000, 29.72,
 00:25:02.802,COM9, 2025-8-18 0:25:2.540, -0.003, 0.002, 1.001, 0.000, 0.000, 0.000, 0.005, 0.000, -0.011, -44.000, 233.000, -400.000, 29.72,
 00:25:02.805,COM9, 2025-8-18 0:25:2.542, -0.003, 0.002, 1.001, 0.000, 0.000, 0.000, 0.005, 0.000, -0.011, -44.000, 233.000, -400.000, 29.72,
 00:25:02.807,COM9, 2025-8-18 0:25:2.544, -0.003, 0.002, 1.001, 0.000, 0.000, 0.000, 0.005, 0.000, -0.011, -44.000, 233.000, -400.000, 29.72,
 00:25:02.810,COM9, 2025-8-18 0:25:2.546, -0.002, 0.002, 1.001, 0.000, 0.000, 0.000, 0.005, 0.000, -0.011, -44.000, 233.000, -400.000, 29.72,
 00:25:02.810,COM9, 2025-8-18 0:25:2.548, -0.002, 0.003, 1.000, 0.000, 0.000, 0.000, 0.005, 0.000, -0.011, -46.000, 229.000, -402.000, 29.73,
 00:25:02.813,COM9, 2025-8-18 0:25:2.550, -0.002, 0.003, 1.000, 0.000, 0.000, 0.000, 0.005, 0.000, -0.016, -46.000, 229.000, -402.000, 29.73,
 00:25:02.815,COM9, 2025-8-18 0:25:2.552, -0.002, 0.003, 1.000, 0.000, 0.000, 0.000, 0.005, 0.000, -0.022, -46.000, 229.000, -402.000, 29.73,
 00:25:02.816,COM9, 2025-8-18 0:25:2.554, -0.002, 0.003, 1.000, 0.000, 0.000, 0.000, 0.005, 0.000, -0.022, -46.000, 229.000, -402.000, 29.73,
 00:25:02.819,COM9, 2025-8-18 0:25:2.556, -0.002, 0.003, 1.000, 0.000, 0.000, 0.000, 0.005, 0.000, -0.027, -46.000, 229.000, -402.000, 29.73,
 00:25:02.821,COM9, 2025-8-18 0:25:2.558, -0.002, 0.003, 1.000, 0.000, 0.000, 0.000, 0.005, 0.000, -0.027, -43.000, 230.000, -401.000, 29.73,
 00:25:02.822,COM9, 2025-8-18 0:25:2.560, -0.002, 0.003, 1.000, 0.000, 0.000, 0.000, 0.005, 0.000, -0.027, -43.000, 230.000, -401.000, 29.73,
 00:25:02.825,COM9, 2025-8-18 0:25:2.562, -0.002, 0.003, 1.000, 0.000, 0.000, 0.000, 0.005, 0.000, -0.027, -43.000, 230.000, -401.000, 29.73,
 00:25:02.827,COM9, 2025-8-18 0:25:2.564, -0.002, 0.003, 1.000, 0.000, 0.000, 0.000, 0.005, 0.000, -0.027, -43.000, 230.000, -401.000, 29.73,
 00:25:02.830,COM9, 2025-8-18 0:25:2.566, -0.003, 0.003, 1.000, 0.000, 0.000, 0.000, 0.005, 0.000, -0.027, -43.000, 230.000, -401.000, 29.73,
 00:25:02.831,COM9, 2025-8-18 0:25:2.568, -0.003, 0.003, 1.000, 0.000, 0.000, 0.000, 0.005, 0.000, -0.027, -45.000, 230.000, -403.000, 29.71,
 00:25:02.833,COM9, 2025-8-18 0:25:2.570, -0.003, 0.003, 1.000, 0.000, 0.000, 0.000, 0.005, 0.000, -0.027, -45.000, 230.000, -403.000, 29.71,
 00:25:02.834,COM9, 2025-8-18 0:25:2.572, -0.003, 0.003, 1.000, 0.000, 0.000, 0.000, 0.005, 0.000, -0.033, -45.000, 230.000, -403.000, 29.71,
 00:25:02.837,COM9, 2025-8-18 0:25:2.574, -0.003, 0.003, 1.000, 0.000, 0.000, 0.000, 0.005, 0.000, -0.033, -45.000, 230.000, -403.000, 29.71,
 00:25:02.839,COM9, 2025-8-18 0:25:2.576, -0.003, 0.003, 1.000, 0.000, 0.000, 0.000, 0.005, 0.000, -0.038, -45.000, 230.000, -403.000, 29.71,
 00:25:02.840,COM9, 2025-8-18 0:25:2.578, -0.003, 0.003, 1.000, 0.000, 0.000, 0.000, 0.005, 0.000, -0.038, -44.000, 230.000, -403.000, 29.71,
 00:25:02.843,COM9, 2025-8-18 0:25:2.580, -0.003, 0.003, 1.000, 0.000, 0.000, 0.000, 0.005, 0.000, -0.038, -44.000, 230.000, -403.000, 29.71,
 00:25:02.845,COM9, 2025-8-18 0:25:2.582, -0.003, 0.003, 1.000, 0.000, 0.000, 0.000, 0.005, 0.000, -0.038, -44.000, 230.000, -403.000, 29.71,
 00:25:02.846,COM9, 2025-8-18 0:25:2.584, -0.003, 0.003, 1.000, 0.000, 0.000, 0.000, 0.005, 0.000, -0.038, -44.000, 230.000, -403.000, 29.71,
 00:25:02.849,COM9, 2025-8-18 0:25:2.586, -0.002, 0.003, 1.000, 0.000, 0.000, 0.000, 0.005, 0.000, -0.038, -44.000, 230.000, -403.000, 29.71,
 00:25:02.851,COM9, 2025-8-18 0:25:2.588, -0.002, 0.003, 1.000, 0.000, 0.000, 0.000, 0.005, 0.000, -0.044, -44.000, 230.000, -403.000, 29.74,
 00:25:02.852,COM9, 2025-8-18 0:25:2.590, -0.002, 0.003, 1.000, 0.000, 0.000, 0.000, 0.005, 0.000, -0.044, -44.000, 230.000, -403.000, 29.74,
 00:25:02.855,COM9, 2025-8-18 0:25:2.592, -0.002, 0.003, 1.000, 0.000, 0.000, 0.000, 0.005, 0.000, -0.044, -44.000, 230.000, -403.000, 29.74,
 00:25:02.857,COM9, 2025-8-18 0:25:2.594, -0.002, 0.003, 1.000, 0.000, 0.000, 0.000, 0.005, 0.000, -0.044, -44.000, 230.000, -403.000, 29.74,
 00:25:02.860,COM9, 2025-8-18 0:25:2.596, -0.002, 0.003, 1.000, 0.000, 0.000, 0.000, 0.005, 0.000, -0.044, -44.000, 230.000, -403.000, 29.74,
 00:25:02.861,COM9, 2025-8-18 0:25:2.598, -0.002, 0.003, 1.000, 0.000, 0.000, 0.000, 0.005, 0.000, -0.044, -44.000, 228.000, -401.000, 29.74,
 00:25:02.863,COM9, 2025-8-18 0:25:2.600, -0.002, 0.003, 1.000, 0.000, 0.000, 0.000, 0.005, 0.000, -0.044, -44.000, 228.000, -401.000, 29.74,
 00:25:02.864,COM9, 2025-8-18 0:25:2.602, -0.002, 0.003, 1.000, 0.000, 0.000, 0.000, 0.005, 0.000, -0.044, -44.000, 228.000, -401.000, 29.74,
 00:25:02.867,COM9, 2025-8-18 0:25:2.604, -0.002, 0.003, 1.000, 0.000, 0.000, 0.000, 0.005, 0.000, -0.049, -44.000, 228.000, -401.000, 29.74,
 00:25:02.869,COM9, 2025-8-18 0:25:2.606, -0.002, 0.003, 1.000, 0.000, 0.000, 0.000, 0.005, 0.000, -0.049, -44.000, 228.000, -401.000, 29.74,
 00:25:02.870,COM9, 2025-8-18 0:25:2.608, -0.002, 0.003, 1.000, 0.000, 0.000, 0.000, 0.005, 0.000, -0.049, -45.000, 231.000, -402.000, 29.71,
 00:25:02.873,COM9, 2025-8-18 0:25:2.610, -0.002, 0.003, 1.000, 0.000, 0.000, 0.000, 0.005, 0.000, -0.049, -45.000, 231.000, -402.000, 29.71,
 00:25:02.875,COM9, 2025-8-18 0:25:2.612, -0.002, 0.003, 1.000, 0.000, 0.000, 0.000, 0.005, 0.000, -0.055, -45.000, 231.000, -402.000, 29.71,
 00:25:02.876,COM9, 2025-8-18 0:25:2.614, -0.002, 0.003, 1.000, 0.000, 0.000, 0.000, 0.000, 0.000, -0.055, -45.000, 231.000, -402.000, 29.71,
 00:25:02.879,COM9, 2025-8-18 0:25:2.616, -0.002, 0.003, 1.000, 0.000, 0.000, 0.000, 0.000, 0.000, -0.055, -45.000, 231.000, -402.000, 29.71,
 00:25:02.881,COM9, 2025-8-18 0:25:2.618, -0.002, 0.003, 1.000, 0.000, 0.000, 0.000, 0.000, 0.000, -0.055, -43.000, 234.000, -401.000, 29.71,
 00:25:02.882,COM9, 2025-8-18 0:25:2.620, -0.002, 0.003, 1.000, 0.000, 0.000, 0.000, 0.000, 0.000, -0.055, -43.000, 234.000, -401.000, 29.71,
 00:25:02.885,COM9, 2025-8-18 0:25:2.622, -0.002, 0.003, 1.000, 0.000, 0.000, 0.000, 0.000, 0.000, -0.049, -43.000, 234.000, -401.000, 29.71,
 00:25:02.887,COM9, 2025-8-18 0:25:2.624, -0.002, 0.003, 1.000, 0.000, 0.000, 0.000, 0.000, 0.000, -0.049, -43.000, 234.000, -401.000, 29.71,
 00:25:02.890,COM9, 2025-8-18 0:25:2.626, -0.002, 0.003, 1.000, 0.000, 0.000, 0.000, 0.000, 0.000, -0.044, -43.000, 234.000, -401.000, 29.71,
 00:25:02.891,COM9, 2025-8-18 0:25:2.628, -0.002, 0.004, 0.999, 0.000, 0.000, 0.000, 0.000, 0.000, -0.044, -42.000, 231.000, -402.000, 29.70,
 00:25:02.893,COM9, 2025-8-18 0:25:2.630, -0.002, 0.004, 0.999, 0.000, 0.000, 0.000, 0.000, 0.000, -0.038, -42.000, 231.000, -402.000, 29.70,
 00:25:02.894,COM9, 2025-8-18 0:25:2.632, -0.002, 0.004, 0.999, 0.000, 0.000, 0.000, 0.000, 0.000, -0.038, -42.000, 231.000, -402.000, 29.70,
 00:25:02.897,COM9, 2025-8-18 0:25:2.634, -0.002, 0.004, 0.999, 0.000, 0.000, 0.000, 0.000, 0.000, -0.033, -42.000, 231.000, -402.000, 29.70,
 00:25:02.899,COM9, 2025-8-18 0:25:2.636, -0.002, 0.004, 0.999, 0.000, 0.000, 0.000, 0.000, 0.000, -0.033, -42.000, 231.000, -402.000, 29.70,
 00:25:02.903,COM9, 2025-8-18 0:25:2.640, -0.002, 0.004, 0.999, 0.000, 0.000, 0.000, 0.000, 0.000, -0.033, -45.000, 232.000, -403.000, 29.70,
 00:25:02.905,COM9, 2025-8-18 0:25:2.642, -0.002, 0.004, 0.999, 0.000, 0.000, 0.000, 0.000, 0.000, -0.033, -45.000, 232.000, -403.000, 29.70,
 00:25:02.906,COM9, 2025-8-18 0:25:2.644, -0.002, 0.004, 0.999, 0.000, 0.000, 0.000, 0.000, 0.000, -0.033, -45.000, 232.000, -403.000, 29.70,
 00:25:02.909,COM9, 2025-8-18 0:25:2.646, -0.001, 0.004, 0.999, 0.000, 0.000, 0.000, 0.000, 0.000, -0.038, -45.000, 232.000, -403.000, 29.70,
 00:25:02.911,COM9, 2025-8-18 0:25:2.648, -0.001, 0.003, 1.000, 0.000, 0.000, 0.000, 0.000, 0.000, -0.038, -45.000, 229.000, -402.000, 29.70,
 00:25:02.912,COM9, 2025-8-18 0:25:2.650, -0.001, 0.003, 1.000, 0.000, 0.000, 0.000, 0.005, 0.000, -0.038, -45.000, 229.000, -402.000, 29.70,
 00:25:02.915,COM9, 2025-8-18 0:25:2.652, -0.001, 0.003, 1.000, 0.000, 0.000, 0.000, 0.005, 0.000, -0.038, -45.000, 229.000, -402.000, 29.70,
 00:25:02.917,COM9, 2025-8-18 0:25:2.654, -0.001, 0.003, 1.000, 0.000, 0.000, 0.000, 0.005, 0.000, -0.044, -45.000, 229.000, -402.000, 29.70,
 00:25:02.920,COM9, 2025-8-18 0:25:2.656, -0.001, 0.003, 1.000, 0.000, 0.000, 0.000, 0.005, 0.000, -0.044, -45.000, 229.000, -402.000, 29.70,
 00:25:02.921,COM9, 2025-8-18 0:25:2.658, -0.001, 0.003, 1.000, 0.000, 0.000, 0.000, 0.005, 0.000, -0.044, -43.000, 230.000, -401.000, 29.70,
 00:25:02.923,COM9, 2025-8-18 0:25:2.660, -0.001, 0.003, 1.000, 0.000, 0.000, 0.000, 0.005, 0.000, -0.044, -43.000, 230.000, -401.000, 29.70,
 00:25:02.924,COM9, 2025-8-18 0:25:2.662, -0.001, 0.003, 1.000, 0.000, 0.000, 0.000, 0.005, 0.000, -0.044, -43.000, 230.000, -401.000, 29.70,
 00:25:02.927,COM9, 2025-8-18 0:25:2.664, -0.001, 0.003, 1.000, 0.000, 0.000, 0.000, 0.005, 0.000, -0.038, -43.000, 230.000, -401.000, 29.70,
 00:25:02.929,COM9, 2025-8-18 0:25:2.666, -0.002, 0.003, 1.000, 0.000, 0.000, 0.000, 0.005, 0.000, -0.038, -43.000, 230.000, -401.000, 29.72,
 00:25:02.930,COM9, 2025-8-18 0:25:2.668, -0.002, 0.003, 1.000, 0.000, 0.000, 0.000, 0.005, 0.000, -0.038, -44.000, 232.000, -403.000, 29.72,
 00:25:02.933,COM9, 2025-8-18 0:25:2.670, -0.002, 0.003, 1.000, 0.000, 0.000, 0.000, 0.005, 0.000, -0.038, -44.000, 232.000, -403.000, 29.72,
 00:25:02.935,COM9, 2025-8-18 0:25:2.672, -0.002, 0.003, 1.000, 0.000, 0.000, 0.000, 0.005, 0.000, -0.038, -44.000, 232.000, -403.000, 29.72,
 00:25:02.936,COM9, 2025-8-18 0:25:2.674, -0.002, 0.003, 1.000, 0.000, 0.000, 0.000, 0.000, 0.000, -0.038, -44.000, 232.000, -403.000, 29.72,
 00:25:02.939,COM9, 2025-8-18 0:25:2.676, -0.002, 0.003, 1.000, 0.000, 0.000, 0.000, 0.000, 0.000, -0.038, -44.000, 232.000, -403.000, 29.72,
 00:25:02.941,COM9, 2025-8-18 0:25:2.678, -0.002, 0.003, 1.000, 0.000, 0.000, 0.000, 0.000, 0.000, -0.038, -44.000, 231.000, -400.000, 29.72,
 00:25:02.942,COM9, 2025-8-18 0:25:2.680, -0.002, 0.003, 1.000, 0.000, 0.000, 0.000, 0.000, 0.000, -0.038, -44.000, 231.000, -400.000, 29.72,
 00:25:02.945,COM9, 2025-8-18 0:25:2.682, -0.002, 0.003, 1.000, 0.000, 0.000, 0.000, 0.000, -0.005, -0.038, -44.000, 231.000, -400.000, 29.72,
 00:25:02.947,COM9, 2025-8-18 0:25:2.684, -0.002, 0.003, 1.000, 0.000, 0.000, 0.000, 0.000, -0.005, -0.038, -44.000, 231.000, -400.000, 29.72,
 00:25:02.950,COM9, 2025-8-18 0:25:2.686, -0.002, 0.003, 1.000, 0.000, 0.000, 0.000, 0.000, -0.005, -0.038, -44.000, 231.000, -400.000, 29.73,
 00:25:02.951,COM9, 2025-8-18 0:25:2.688, -0.002, 0.003, 1.000, 0.000, 0.000, 0.000, 0.000, -0.005, -0.038, -44.000, 232.000, -401.000, 29.73,
 00:25:02.953,COM9, 2025-8-18 0:25:2.690, -0.002, 0.003, 1.000, 0.000, 0.000, 0.000, 0.000, -0.005, -0.038, -44.000, 232.000, -401.000, 29.73,
 00:25:02.954,COM9, 2025-8-18 0:25:2.692, -0.002, 0.003, 1.000, 0.000, 0.000, 0.000, 0.000, -0.005, -0.038, -44.000, 232.000, -401.000, 29.73,
 00:25:02.957,COM9, 2025-8-18 0:25:2.694, -0.002, 0.003, 1.000, 0.000, 0.000, 0.000, 0.000, -0.005, -0.033, -44.000, 232.000, -401.000, 29.73,
 00:25:02.959,COM9, 2025-8-18 0:25:2.696, -0.002, 0.003, 1.000, 0.000, 0.000, 0.000, 0.000, -0.005, -0.033, -44.000, 232.000, -401.000, 29.73,
 00:25:02.961,COM9, 2025-8-18 0:25:2.698, -0.002, 0.003, 1.000, 0.000, 0.000, 0.000, 0.000, -0.005, -0.033, -40.000, 231.000, -402.000, 29.73,
 00:25:02.963,COM9, 2025-8-18 0:25:2.700, -0.002, 0.003, 1.000, 0.000, 0.000, 0.000, 0.000, -0.005, -0.027, -40.000, 231.000, -402.000, 29.73,
 00:25:02.965,COM9, 2025-8-18 0:25:2.702, -0.002, 0.003, 1.000, 0.000, 0.000, 0.000, 0.000, -0.005, -0.022, -40.000, 231.000, -402.000, 29.73,
 00:25:02.967,COM9, 2025-8-18 0:25:2.704, -0.002, 0.003, 1.000, 0.000, 0.000, 0.000, 0.000, -0.005, -0.016, -40.000, 231.000, -402.000, 29.73,
 00:25:02.969,COM9, 2025-8-18 0:25:2.706, -0.002, 0.004, 0.999, 0.000, 0.000, 0.000, 0.000, -0.005, -0.011, -40.000, 231.000, -402.000, 29.73,
 00:25:02.972,COM9, 2025-8-18 0:25:2.708, -0.002, 0.004, 0.999, 0.000, 0.000, 0.000, 0.000, -0.005, -0.005, -43.000, 230.000, -406.000, 29.73,
 00:25:02.973,COM9, 2025-8-18 0:25:2.710, -0.002, 0.004, 0.999, 0.000, 0.000, 0.000, 0.000, -0.005, -0.005, -43.000, 230.000, -406.000, 29.73,
 00:25:02.975,COM9, 2025-8-18 0:25:2.712, -0.002, 0.004, 0.999, 0.000, 0.000, 0.000, 0.000, -0.005, -0.005, -43.000, 230.000, -406.000, 29.73,
 00:25:02.979,COM9, 2025-8-18 0:25:2.714, -0.002, 0.004, 0.999, 0.000, 0.000, 0.000, 0.000, -0.005, -0.005, -43.000, 230.000, -406.000, 29.73,
 00:25:02.979,COM9, 2025-8-18 0:25:2.716, -0.002, 0.004, 0.999, 0.000, 0.000, 0.000, 0.000, -0.005, -0.005, -43.000, 230.000, -406.000, 29.73,
 00:25:02.981,COM9, 2025-8-18 0:25:2.718, -0.002, 0.004, 0.999, 0.000, 0.000, 0.000, 0.000, -0.005, -0.005, -44.000, 229.000, -405.000, 29.73,
 00:25:02.984,COM9, 2025-8-18 0:25:2.720, -0.002, 0.004, 0.999, 0.000, 0.000, 0.000, 0.000, -0.005, -0.005, -44.000, 229.000, -405.000, 29.73,
 00:25:02.985,COM9, 2025-8-18 0:25:2.722, -0.002, 0.004, 0.999, 0.000, 0.000, 0.000, 0.000, -0.005, -0.005, -44.000, 229.000, -405.000, 29.73,
 00:25:02.987,COM9, 2025-8-18 0:25:2.724, -0.002, 0.004, 0.999, 0.000, 0.000, 0.000, 0.000, -0.005, -0.005, -44.000, 229.000, -405.000, 29.73,
 00:25:02.990,COM9, 2025-8-18 0:25:2.726, -0.002, 0.004, 1.000, 0.000, 0.000, 0.000, 0.000, -0.005, -0.005, -44.000, 229.000, -405.000, 29.70,
 00:25:02.991,COM9, 2025-8-18 0:25:2.728, -0.002, 0.004, 1.000, 0.000, 0.000, 0.000, 0.000, -0.005, -0.011, -45.000, 230.000, -403.000, 29.70,
 00:25:02.993,COM9, 2025-8-18 0:25:2.730, -0.002, 0.004, 1.000, 0.000, 0.000, 0.000, 0.000, -0.005, -0.011, -45.000, 230.000, -403.000, 29.70,
 00:25:02.996,COM9, 2025-8-18 0:25:2.732, -0.002, 0.004, 1.000, 0.000, 0.000, 0.000, 0.000, 0.000, -0.016, -45.000, 230.000, -403.000, 29.70,
 00:25:02.997,COM9, 2025-8-18 0:25:2.734, -0.002, 0.004, 1.000, 0.000, 0.000, 0.000, 0.000, 0.000, -0.016, -45.000, 230.000, -403.000, 29.70,
 00:25:02.999,COM9, 2025-8-18 0:25:2.736, -0.002, 0.004, 1.000, 0.000, 0.000, 0.000, 0.000, 0.000, -0.016, -45.000, 230.000, -403.000, 29.70,
 00:25:03.001,COM9, 2025-8-18 0:25:2.738, -0.002, 0.004, 1.000, 0.000, 0.000, 0.000, 0.000, 0.000, -0.016, -44.000, 232.000, -403.000, 29.70,
 00:25:03.002,COM9, 2025-8-18 0:25:2.740, -0.002, 0.004, 1.000, 0.000, 0.000, 0.000, 0.000, 0.000, -0.016, -44.000, 232.000, -403.000, 29.70,
 00:25:03.005,COM9, 2025-8-18 0:25:2.742, -0.002, 0.004, 1.000, 0.000, 0.000, 0.000, 0.000, 0.000, -0.016, -44.000, 232.000, -403.000, 29.70,
 00:25:03.007,COM9, 2025-8-18 0:25:2.744, -0.002, 0.004, 1.000, 0.000, 0.000, 0.000, 0.000, 0.000, -0.016, -44.000, 232.000, -403.000, 29.70,
 00:25:03.010,COM9, 2025-8-18 0:25:2.746, -0.002, 0.004, 1.000, 0.000, 0.000, 0.000, 0.000, 0.000, -0.016, -44.000, 232.000, -403.000, 29.70,
 00:25:03.010,COM9, 2025-8-18 0:25:2.748, -0.002, 0.004, 1.000, 0.000, 0.000, 0.000, 0.000, 0.000, -0.016, -43.000, 230.000, -403.000, 29.70,
 00:25:03.013,COM9, 2025-8-18 0:25:2.750, -0.002, 0.004, 1.000, 0.000, 0.000, 0.000, 0.000, 0.000, -0.016, -43.000, 230.000, -403.000, 29.70,
 00:25:03.015,COM9, 2025-8-18 0:25:2.752, -0.002, 0.004, 1.000, 0.000, 0.000, 0.000, 0.000, 0.000, -0.016, -43.000, 230.000, -403.000, 29.70,
 00:25:03.016,COM9, 2025-8-18 0:25:2.754, -0.002, 0.004, 1.000, 0.000, 0.000, 0.000, 0.000, 0.000, -0.016, -43.000, 230.000, -403.000, 29.70,
 00:25:03.019,COM9, 2025-8-18 0:25:2.756, -0.002, 0.004, 1.000, 0.000, 0.000, 0.000, 0.000, 0.000, -0.016, -43.000, 230.000, -403.000, 29.70,
 00:25:03.020,COM9, 2025-8-18 0:25:2.758, -0.002, 0.004, 1.000, 0.000, 0.000, 0.000, 0.005, 0.000, -0.016, -45.000, 231.000, -402.000, 29.70,
 00:25:03.023,COM9, 2025-8-18 0:25:2.760, -0.002, 0.004, 1.000, 0.000, 0.000, 0.000, 0.005, 0.000, -0.016, -45.000, 231.000, -402.000, 29.70,
 00:25:03.025,COM9, 2025-8-18 0:25:2.762, -0.002, 0.004, 1.000, 0.000, 0.000, 0.000, 0.005, 0.000, -0.022, -45.000, 231.000, -402.000, 29.70,
 00:25:03.026,COM9, 2025-8-18 0:25:2.764, -0.003, 0.004, 1.000, 0.000, 0.000, 0.000, 0.005, 0.000, -0.022, -45.000, 231.000, -402.000, 29.70,
 00:25:03.029,COM9, 2025-8-18 0:25:2.766, -0.003, 0.003, 1.000, 0.000, 0.000, 0.000, 0.005, 0.000, -0.022, -45.000, 231.000, -402.000, 29.74,
 00:25:03.031,COM9, 2025-8-18 0:25:2.768, -0.003, 0.003, 1.000, 0.000, 0.000, 0.000, 0.005, 0.000, -0.022, -42.000, 230.000, -396.000, 29.74,
 00:25:03.032,COM9, 2025-8-18 0:25:2.770, -0.003, 0.003, 1.000, 0.000, 0.000, 0.000, 0.005, 0.000, -0.022, -42.000, 230.000, -396.000, 29.74,
 00:25:03.035,COM9, 2025-8-18 0:25:2.772, -0.003, 0.003, 1.000, 0.000, 0.000, 0.000, 0.005, 0.000, -0.016, -42.000, 230.000, -396.000, 29.74,
 00:25:03.037,COM9, 2025-8-18 0:25:2.774, -0.003, 0.003, 1.000, 0.000, 0.000, 0.000, 0.005, 0.000, -0.016, -42.000, 230.000, -396.000, 29.74,
 00:25:03.040,COM9, 2025-8-18 0:25:2.776, -0.003, 0.003, 1.000, 0.000, 0.000, 0.000, 0.005, 0.000, -0.016, -42.000, 230.000, -396.000, 29.74,
 00:25:03.041,COM9, 2025-8-18 0:25:2.778, -0.003, 0.003, 1.000, 0.000, 0.000, 0.000, 0.005, 0.000, -0.011, -43.000, 230.000, -406.000, 29.74,
 00:25:03.043,COM9, 2025-8-18 0:25:2.780, -0.003, 0.003, 1.000, 0.000, 0.000, 0.000, 0.005, 0.000, -0.011, -43.000, 230.000, -406.000, 29.74,
 00:25:03.046,COM9, 2025-8-18 0:25:2.782, -0.003, 0.003, 1.000, 0.000, 0.000, 0.000, 0.005, 0.000, -0.011, -43.000, 230.000, -406.000, 29.74,
 00:25:03.047,COM9, 2025-8-18 0:25:2.784, -0.002, 0.003, 1.000, 0.000, 0.000, 0.000, 0.005, 0.000, -0.011, -43.000, 230.000, -406.000, 29.74,
 00:25:03.049,COM9, 2025-8-18 0:25:2.786, -0.002, 0.004, 1.000, 0.000, 0.000, 0.000, 0.005, 0.000, -0.011, -43.000, 230.000, -406.000, 29.69,
 00:25:03.052,COM9, 2025-8-18 0:25:2.788, -0.002, 0.004, 1.000, 0.000, 0.000, 0.000, 0.005, 0.000, -0.011, -43.000, 229.000, -402.000, 29.69,
 00:25:03.053,COM9, 2025-8-18 0:25:2.790, -0.002, 0.004, 1.000, 0.000, 0.000, 0.000, 0.005, 0.000, -0.011, -43.000, 229.000, -402.000, 29.69,
 00:25:03.054,COM9, 2025-8-18 0:25:2.792, -0.002, 0.004, 1.000, 0.000, 0.000, 0.000, 0.005, 0.000, -0.011, -43.000, 229.000, -402.000, 29.69,
 00:25:03.057,COM9, 2025-8-18 0:25:2.794, -0.002, 0.004, 1.000, 0.000, 0.000, 0.000, 0.005, 0.000, -0.011, -43.000, 229.000, -402.000, 29.69,
 00:25:03.059,COM9, 2025-8-18 0:25:2.796, -0.002, 0.004, 1.000, 0.000, 0.000, 0.000, 0.005, 0.000, -0.005, -43.000, 229.000, -402.000, 29.69,
 00:25:03.060,COM9, 2025-8-18 0:25:2.798, -0.002, 0.004, 1.000, 0.000, 0.000, 0.000, 0.005, 0.000, -0.011, -46.000, 231.000, -402.000, 29.69,
 00:25:03.063,COM9, 2025-8-18 0:25:2.800, -0.002, 0.004, 1.000, 0.000, 0.000, 0.000, 0.005, 0.000, -0.011, -46.000, 231.000, -402.000, 29.69,
 00:25:03.065,COM9, 2025-8-18 0:25:2.802, -0.002, 0.004, 1.000, 0.000, 0.000, 0.000, 0.005, 0.000, -0.016, -46.000, 231.000, -402.000, 29.69,
 00:25:03.066,COM9, 2025-8-18 0:25:2.804, -0.001, 0.004, 1.000, 0.000, 0.000, 0.000, 0.005, 0.000, -0.016, -46.000, 231.000, -402.000, 29.69,
 00:25:03.069,COM9, 2025-8-18 0:25:2.806, -0.001, 0.004, 0.999, 0.000, 0.000, 0.000, 0.005, 0.000, -0.022, -46.000, 231.000, -402.000, 29.71,
 00:25:03.071,COM9, 2025-8-18 0:25:2.808, -0.001, 0.004, 0.999, 0.000, 0.000, 0.000, 0.005, 0.000, -0.022, -44.000, 231.000, -402.000, 29.71,
 00:25:03.072,COM9, 2025-8-18 0:25:2.810, -0.001, 0.004, 0.999, 0.000, 0.000, 0.000, 0.005, 0.000, -0.022, -44.000, 231.000, -402.000, 29.71,
 00:25:03.075,COM9, 2025-8-18 0:25:2.812, -0.001, 0.004, 0.999, 0.000, 0.000, 0.000, 0.005, 0.000, -0.022, -44.000, 231.000, -402.000, 29.71,
 00:25:03.077,COM9, 2025-8-18 0:25:2.814, -0.001, 0.004, 0.999, 0.000, 0.000, 0.000, 0.005, 0.000, -0.022, -44.000, 231.000, -402.000, 29.71,
 00:25:03.080,COM9, 2025-8-18 0:25:2.816, -0.001, 0.004, 0.999, 0.000, 0.000, 0.000, 0.005, 0.000, -0.022, -44.000, 231.000, -402.000, 29.71,
 00:25:03.081,COM9, 2025-8-18 0:25:2.818, -0.001, 0.004, 0.999, 0.000, 0.000, 0.000, 0.005, 0.000, -0.022, -44.000, 230.000, -401.000, 29.71,
 00:25:03.083,COM9, 2025-8-18 0:25:2.820, -0.001, 0.004, 0.999, 0.000, 0.000, 0.000, 0.005, 0.000, -0.022, -44.000, 230.000, -401.000, 29.71,
 00:25:03.084,COM9, 2025-8-18 0:25:2.822, -0.001, 0.004, 0.999, 0.000, 0.000, 0.000, 0.005, 0.000, -0.022, -44.000, 230.000, -401.000, 29.71,
 00:25:03.087,COM9, 2025-8-18 0:25:2.824, -0.002, 0.004, 0.999, 0.000, 0.000, 0.000, 0.005, 0.000, -0.022, -44.000, 230.000, -401.000, 29.71,
 00:25:03.089,COM9, 2025-8-18 0:25:2.826, -0.002, 0.003, 1.000, 0.000, 0.000, 0.000, 0.005, 0.000, -0.022, -44.000, 230.000, -401.000, 29.74,
 00:25:03.091,COM9, 2025-8-18 0:25:2.828, -0.002, 0.003, 1.000, 0.000, 0.000, 0.000, 0.005, 0.000, -0.022, -42.000, 230.000, -401.000, 29.74,
 00:25:03.092,COM9, 2025-8-18 0:25:2.830, -0.002, 0.003, 1.000, 0.000, 0.000, 0.000, 0.005, 0.000, -0.022, -42.000, 230.000, -401.000, 29.74,
 00:25:03.095,COM9, 2025-8-18 0:25:2.832, -0.002, 0.003, 1.000, 0.000, 0.000, 0.000, 0.005, 0.000, -0.016, -42.000, 230.000, -401.000, 29.74,
 00:25:03.097,COM9, 2025-8-18 0:25:2.834, -0.002, 0.003, 1.000, 0.000, 0.000, 0.000, 0.005, 0.000, -0.016, -42.000, 230.000, -401.000, 29.74,
 00:25:03.100,COM9, 2025-8-18 0:25:2.836, -0.002, 0.003, 1.000, 0.000, 0.000, 0.000, 0.005, 0.000, -0.011, -42.000, 230.000, -401.000, 29.74,
 00:25:03.101,COM9, 2025-8-18 0:25:2.838, -0.002, 0.003, 1.000, 0.000, 0.000, 0.000, 0.005, 0.000, -0.011, -46.000, 232.000, -401.000, 29.74,
 00:25:03.103,COM9, 2025-8-18 0:25:2.840, -0.002, 0.003, 1.000, 0.000, 0.000, 0.000, 0.005, 0.000, -0.016, -46.000, 232.000, -401.000, 29.74,
 00:25:03.104,COM9, 2025-8-18 0:25:2.842, -0.002, 0.003, 1.000, 0.000, 0.000, 0.000, 0.005, 0.000, -0.016, -46.000, 232.000, -401.000, 29.74,
 00:25:03.107,COM9, 2025-8-18 0:25:2.844, -0.002, 0.003, 1.000, 0.000, 0.000, 0.000, 0.005, 0.000, -0.022, -46.000, 232.000, -401.000, 29.74,
 00:25:03.109,COM9, 2025-8-18 0:25:2.846, -0.002, 0.002, 1.000, 0.000, 0.000, 0.000, 0.005, 0.000, -0.022, -46.000, 232.000, -401.000, 29.74,
 00:25:03.110,COM9, 2025-8-18 0:25:2.848, -0.002, 0.002, 1.000, 0.000, 0.000, 0.000, 0.005, 0.000, -0.022, -42.000, 230.000, -398.000, 29.74,
 00:25:03.113,COM9, 2025-8-18 0:25:2.850, -0.002, 0.002, 1.000, 0.000, 0.000, 0.000, 0.005, 0.000, -0.022, -42.000, 230.000, -398.000, 29.74,
 00:25:03.115,COM9, 2025-8-18 0:25:2.852, -0.002, 0.002, 1.000, 0.000, 0.000, 0.000, 0.005, 0.000, -0.022, -42.000, 230.000, -398.000, 29.74,
 00:25:03.117,COM9, 2025-8-18 0:25:2.854, -0.002, 0.002, 1.000, 0.000, 0.000, 0.000, 0.005, 0.000, -0.016, -42.000, 230.000, -398.000, 29.74,
 00:25:03.120,COM9, 2025-8-18 0:25:2.856, -0.002, 0.002, 1.000, 0.000, 0.000, 0.000, 0.005, 0.000, -0.016, -42.000, 230.000, -398.000, 29.74,
 00:25:03.121,COM9, 2025-8-18 0:25:2.858, -0.002, 0.002, 1.000, 0.000, 0.000, 0.000, 0.005, 0.000, -0.016, -44.000, 231.000, -402.000, 29.74,
 00:25:03.124,COM9, 2025-8-18 0:25:2.860, -0.002, 0.002, 1.000, 0.000, 0.000, 0.000, 0.005, 0.000, -0.016, -44.000, 231.000, -402.000, 29.74,
 00:25:03.125,COM9, 2025-8-18 0:25:2.862, -0.002, 0.002, 1.000, 0.000, 0.000, 0.000, 0.005, 0.000, -0.016, -44.000, 231.000, -402.000, 29.74,
 00:25:03.127,COM9, 2025-8-18 0:25:2.864, -0.002, 0.002, 1.000, 0.000, 0.000, 0.000, 0.005, 0.000, -0.016, -44.000, 231.000, -402.000, 29.74,
 00:25:03.130,COM9, 2025-8-18 0:25:2.866, -0.002, 0.003, 1.000, 0.000, 0.000, 0.000, 0.005, 0.000, -0.016, -44.000, 231.000, -402.000, 29.71,
 00:25:03.131,COM9, 2025-8-18 0:25:2.868, -0.002, 0.003, 1.000, 0.000, 0.000, 0.000, 0.005, 0.000, -0.016, -46.000, 229.000, -400.000, 29.71,
 00:25:03.133,COM9, 2025-8-18 0:25:2.870, -0.002, 0.003, 1.000, 0.000, 0.000, 0.000, 0.000, 0.000, -0.022, -46.000, 229.000, -400.000, 29.71,
 00:25:03.136,COM9, 2025-8-18 0:25:2.872, -0.002, 0.003, 1.000, 0.000, 0.000, 0.000, 0.000, 0.000, -0.027, -46.000, 229.000, -400.000, 29.71,
